Participant_Number,Trial_Number,Condition,FCfar,FCmed,FCclose,Target_Contrast,Correct_Response,Reaction_Time
81,0,Constant,0.1,0.1,0.1,0.1,1,1.077318371999354
81,1,FarLowWide,0.03,0.25,0.5,0.1,1,0.3518292520002433
81,2,FarHighNarrow,0.2,0.15,0.1,0.1,1,0.2862105669992161
81,3,ThreeLinesControl,0.0,0.0,0.1,0.1,1,0.3962314829987008
81,4,FarHighWide,0.5,0.25,0.03,0.1,1,0.2554872909986443
81,5,FarHighWide,0.5,0.25,0.03,0.07943282347242815,1,0.2775967639990995
81,6,FarLowWide,0.03,0.25,0.5,0.07943282347242815,1,0.3077039429990691
81,7,FarHighWide,0.5,0.25,0.03,0.06309573444801932,1,0.3277918470012082
81,8,Constant,0.1,0.1,0.1,0.07943282347242815,1,0.270081554999706
81,9,ThreeLinesControl,0.0,0.0,0.1,0.07943282347242815,1,0.2921152750004694
81,10,ThreeLinesControl,0.0,0.0,0.1,0.06309573444801932,1,0.32917557200016745
81,11,ThreeLinesControl,0.0,0.0,0.1,0.05011872336272722,1,0.24692805400081852
81,12,ThreeLinesControl,0.0,0.0,0.1,0.03981071705534971,1,0.28586342400012654
81,13,ThreeLinesControl,0.0,0.0,0.1,0.031622776601683784,1,0.30788017799932277
81,14,FarLowNarrow,0.1,0.15,0.2,0.1,1,0.2656879019996268
81,15,FarHighWide,0.5,0.25,0.03,0.05011872336272722,1,0.3683381359987834
81,16,ThreeLinesControl,0.0,0.0,0.1,0.02511886431509579,1,0.4051157140002033
81,17,FarLowNarrow,0.1,0.15,0.2,0.07943282347242815,1,0.31618568299927574
81,18,FarHighWide,0.5,0.25,0.03,0.03981071705534971,1,0.27934262799863063
81,19,FarHighNarrow,0.2,0.15,0.1,0.07943282347242815,1,0.27762636300030863
81,20,FarLowWide,0.03,0.25,0.5,0.06309573444801932,1,0.26395317500100646
81,21,FarHighWide,0.5,0.25,0.03,0.031622776601683784,1,0.38299256900063483
81,22,ThreeLinesControl,0.0,0.0,0.1,0.01995262314968879,0,99
81,23,ThreeLinesControl,0.0,0.0,0.1,0.025118864315095794,1,0.5212187139986781
81,24,FarHighNarrow,0.2,0.15,0.1,0.06309573444801932,1,0.34337563699955354
81,25,FarHighWide,0.5,0.25,0.03,0.02511886431509579,1,0.40548954299993056
81,26,FarHighWide,0.5,0.25,0.03,0.01995262314968879,1,0.4915132549995178
81,27,FarHighNarrow_null,0.2,0.15,0.1,0.1,1,0.4166059700000915
81,28,ThreeLinesControl_null,0.0,0.0,0.1,0.1,1,0.4228424279990577
81,29,ThreeLinesControl,0.0,0.0,0.1,0.01995262314968879,0,0.4367916810006136
81,30,FarHighNarrow_null,0.2,0.15,0.1,0.07943282347242815,1,0.5072678760006966
81,31,FarHighNarrow,0.2,0.15,0.1,0.05011872336272722,1,0.45636453599945526
81,32,FarHighNarrow_null,0.2,0.15,0.1,0.06309573444801932,1,0.45447856600003433
81,33,ThreeLinesControl,0.0,0.0,0.1,0.025118864315095794,1,0.5086581119994662
81,34,FarHighWide,0.5,0.25,0.03,0.015848931924611127,0,99
81,35,FarHighNarrow,0.2,0.15,0.1,0.03981071705534971,1,0.26201756999944337
81,36,Constant,0.1,0.1,0.1,0.06309573444801932,1,0.30797680800060334
81,37,FarLowWide_null,0.03,0.25,0.5,0.1,1,0.38329057800001465
81,38,ThreeLinesControl,0.0,0.0,0.1,0.01995262314968879,1,0.4133237480000389
81,39,FarHighNarrow,0.2,0.15,0.1,0.031622776601683784,1,0.3615134980009316
81,40,FarLowNarrow,0.1,0.15,0.2,0.06309573444801932,1,0.3115549109988933
81,41,FarHighWide,0.5,0.25,0.03,0.01995262314968879,1,0.40581938800096395
81,42,ThreeLinesControl,0.0,0.0,0.1,0.015848931924611127,0,0.4758602609999798
81,43,ThreeLinesControl_null,0.0,0.0,0.1,0.07943282347242815,0,0.3940875850003067
81,44,Constant_null,0.1,0.1,0.1,0.1,1,0.5033075470000767
81,45,Constant,0.1,0.1,0.1,0.05011872336272722,1,0.3348605880000832
81,46,FarLowWide,0.03,0.25,0.5,0.05011872336272722,1,0.35781346799922176
81,47,ThreeLinesControl,0.0,0.0,0.1,0.01995262314968879,0,0.43342273800044495
81,48,FarHighNarrow,0.2,0.15,0.1,0.02511886431509579,1,0.40785028800019063
81,49,FarLowNarrow,0.1,0.15,0.2,0.05011872336272722,1,0.4315550740011531
81,50,Constant_null,0.1,0.1,0.1,0.07943282347242815,1,0.3780393050001294
81,51,FarLowNarrow,0.1,0.15,0.2,0.03981071705534971,1,0.32719191199976194
81,52,FarHighNarrow,0.2,0.15,0.1,0.01995262314968879,1,0.3252455230012856
81,53,ThreeLinesControl,0.0,0.0,0.1,0.025118864315095794,1,0.3443004349992407
81,54,FarHighWide,0.5,0.25,0.03,0.015848931924611127,0,0.37459715500153834
81,55,ThreeLinesControl,0.0,0.0,0.1,0.01995262314968879,1,0.4199348149995785
81,56,FarHighWide,0.5,0.25,0.03,0.01995262314968879,1,0.6019051740004215
81,57,Constant,0.1,0.1,0.1,0.03981071705534971,1,0.4723001100010151
81,58,FarHighNarrow,0.2,0.15,0.1,0.015848931924611127,1,0.4852831700009119
81,59,FarHighWide,0.5,0.25,0.03,0.015848931924611127,1,0.46722906900140515
81,60,ThreeLinesControl,0.0,0.0,0.1,0.015848931924611127,1,0.4496668789997784
81,61,FarHighNarrow,0.2,0.15,0.1,0.012589254117941666,0,0.4086660029988707
81,62,FarLowNarrow,0.1,0.15,0.2,0.031622776601683784,1,0.4321462269999756
81,63,FarHighNarrow,0.2,0.15,0.1,0.015848931924611127,1,0.40600334299961105
81,64,ThreeLinesControl,0.0,0.0,0.1,0.012589254117941666,0,0.38618577800116327
81,65,Constant,0.1,0.1,0.1,0.031622776601683784,0,99
81,66,ThreeLinesControl,0.0,0.0,0.1,0.015848931924611127,1,0.45142812999984017
81,67,FarHighWide,0.5,0.25,0.03,0.012589254117941666,0,0.4815473890012072
81,68,FarLowWide,0.03,0.25,0.5,0.03981071705534971,1,0.3517158889990242
81,69,FarHighNarrow,0.2,0.15,0.1,0.012589254117941666,1,0.33106179000060365
81,70,FarHighNarrow,0.2,0.15,0.1,0.009999999999999995,1,0.4238590130007651
81,71,FarLowNarrow,0.1,0.15,0.2,0.02511886431509579,1,0.4381523569991259
81,72,FarHighNarrow,0.2,0.15,0.1,0.00794328234724281,1,0.4434741840013885
81,73,Constant,0.1,0.1,0.1,0.03981071705534971,1,0.3615063540000847
81,74,FarHighNarrow,0.2,0.15,0.1,0.0063095734448019285,0,0.46349203799945826
81,75,FarLowWide,0.03,0.25,0.5,0.031622776601683784,1,0.3496929410011944
81,76,FarHighWide,0.5,0.25,0.03,0.015848931924611127,0,99
81,77,FarLowNarrow,0.1,0.15,0.2,0.01995262314968879,1,0.4982317140002124
81,78,Constant,0.1,0.1,0.1,0.031622776601683784,1,0.45633722200000193
81,79,FarHighWide,0.5,0.25,0.03,0.01995262314968879,1,0.40872337900145794
81,80,Constant,0.1,0.1,0.1,0.02511886431509579,0,99
81,81,FarLowWide_null,0.03,0.25,0.5,0.07943282347242815,0,99
81,82,Constant,0.1,0.1,0.1,0.031622776601683784,0,99
81,83,FarHighNarrow_null,0.2,0.15,0.1,0.05011872336272722,0,99
81,84,FarLowNarrow_null,0.1,0.15,0.2,0.1,0,99
81,85,FarLowWide,0.03,0.25,0.5,0.02511886431509579,0,99
81,86,Constant,0.1,0.1,0.1,0.03981071705534971,0,99
81,87,FarHighWide,0.5,0.25,0.03,0.015848931924611127,0,99
81,88,Constant,0.1,0.1,0.1,0.05011872336272721,0,99
81,89,FarHighNarrow,0.2,0.15,0.1,0.00794328234724281,0,99
81,90,Constant_null,0.1,0.1,0.1,0.06309573444801932,0,99
81,91,FarLowNarrow,0.1,0.15,0.2,0.015848931924611127,0,99
81,92,FarHighNarrow,0.2,0.15,0.1,0.009999999999999995,0,99
81,93,FarHighWide,0.5,0.25,0.03,0.01995262314968879,0,99
81,94,FarHighNarrow_null,0.2,0.15,0.1,0.06309573444801932,0,99
81,95,Constant_null,0.1,0.1,0.1,0.07943282347242814,0,99
81,96,FarHighNarrow_null,0.2,0.15,0.1,0.07943282347242814,0,99
81,97,FarLowWide,0.03,0.25,0.5,0.031622776601683784,0,99
81,98,FarLowNarrow,0.1,0.15,0.2,0.01995262314968879,0,99
81,99,FarLowNarrow,0.1,0.15,0.2,0.025118864315095794,0,99
81,100,FarLowWide,0.03,0.25,0.5,0.03981071705534971,0,99
81,101,FarLowWide,0.03,0.25,0.5,0.05011872336272721,0,99
81,102,Constant,0.1,0.1,0.1,0.0630957344480193,0,99
81,103,FarHighWide_null,0.5,0.25,0.03,0.1,0,99
81,104,FarLowWide_null,0.03,0.25,0.5,0.1,0,99
81,105,ThreeLinesControl_null,0.0,0.0,0.1,0.1,0,99
81,106,FarLowNarrow,0.1,0.15,0.2,0.031622776601683784,0,99
81,107,FarLowNarrow,0.1,0.15,0.2,0.03981071705534971,0,99
81,108,Constant,0.1,0.1,0.1,0.07943282347242812,0,99
81,109,FarLowNarrow,0.1,0.15,0.2,0.05011872336272721,0,99
81,110,FarLowNarrow,0.1,0.15,0.2,0.0630957344480193,0,99
81,111,FarHighWide,0.5,0.25,0.03,0.025118864315095794,0,99
81,112,Constant,0.1,0.1,0.1,0.09999999999999998,0,99
81,113,FarHighNarrow,0.2,0.15,0.1,0.012589254117941666,0,99
81,114,FarHighNarrow,0.2,0.15,0.1,0.015848931924611127,0,99
81,115,Constant,0.1,0.1,0.1,0.1,0,99
81,116,Constant,0.1,0.1,0.1,0.1,0,99
81,117,ThreeLinesControl,0.0,0.0,0.1,0.012589254117941666,0,99
81,118,FarHighWide,0.5,0.25,0.03,0.031622776601683784,0,99
81,119,FarLowWide,0.03,0.25,0.5,0.0630957344480193,0,99
81,120,ThreeLinesControl,0.0,0.0,0.1,0.015848931924611127,1,0.6269975320010417
81,121,FarLowNarrow,0.1,0.15,0.2,0.07943282347242812,1,0.4464988359995914
81,122,FarLowWide,0.03,0.25,0.5,0.07943282347242812,1,0.3242554169992218
81,123,FarHighWide,0.5,0.25,0.03,0.03981071705534971,1,0.36947242700080096
81,124,ThreeLinesControl,0.0,0.0,0.1,0.012589254117941666,0,0.43792808599937416
81,125,FarHighNarrow,0.2,0.15,0.1,0.01995262314968879,1,0.3802575949994207
81,126,FarLowNarrow,0.1,0.15,0.2,0.0630957344480193,1,0.3052846809987386
81,127,FarHighNarrow,0.2,0.15,0.1,0.015848931924611127,0,0.42342070400081866
81,128,FarLowWide,0.03,0.25,0.5,0.0630957344480193,1,0.3255537570003071
81,129,FarLowNarrow,0.1,0.15,0.2,0.050118723362727206,1,0.36651922700002615
81,130,FarHighWide,0.5,0.25,0.03,0.031622776601683784,0,0.5064597849996062
81,131,FarLowWide,0.03,0.25,0.5,0.050118723362727206,1,0.29670220499974675
81,132,FarLowWide,0.03,0.25,0.5,0.039810717055349706,1,0.3353581800001848
81,133,Constant,0.1,0.1,0.1,0.1,1,0.2773357410005701
81,134,FarHighWide,0.5,0.25,0.03,0.03981071705534971,1,0.3156924049999361
81,135,ThreeLinesControl,0.0,0.0,0.1,0.015848931924611127,0,0.359566168001038
81,136,FarHighNarrow,0.2,0.15,0.1,0.01995262314968879,1,0.3817969270003232
81,137,FarHighNarrow_null,0.2,0.15,0.1,0.09999999999999999,1,0.497129784000208
81,138,FarLowNarrow,0.1,0.15,0.2,0.039810717055349706,1,0.3511205880004127
81,139,ThreeLinesControl,0.0,0.0,0.1,0.01995262314968879,0,0.4362448760002735
81,140,FarHighWide,0.5,0.25,0.03,0.031622776601683784,1,0.45635970200055453
81,141,FarHighNarrow,0.2,0.15,0.1,0.015848931924611127,1,0.3744398849994468
81,142,ThreeLinesControl,0.0,0.0,0.1,0.025118864315095794,1,0.3966045249999297
81,143,FarHighNarrow,0.2,0.15,0.1,0.012589254117941666,0,0.5857651199985412
81,144,FarLowWide,0.03,0.25,0.5,0.03162277660168378,1,0.328238281999802
81,145,FarLowWide,0.03,0.25,0.5,0.025118864315095787,1,0.36630152399993676
81,146,FarHighNarrow,0.2,0.15,0.1,0.015848931924611127,0,0.4602055340001243
81,147,FarHighNarrow,0.2,0.15,0.1,0.01995262314968879,1,0.5940895050007384
81,148,FarHighWide,0.5,0.25,0.03,0.02511886431509579,1,0.4646637469995767
81,149,Constant,0.1,0.1,0.1,0.07943282347242815,1,0.34408045500094886
81,150,FarHighWide,0.5,0.25,0.03,0.01995262314968879,1,0.517762021998351
81,151,FarLowWide,0.03,0.25,0.5,0.019952623149688785,1,0.33688117199926637
81,152,FarHighNarrow,0.2,0.15,0.1,0.015848931924611127,1,0.3981361599999218
81,153,FarLowNarrow,0.1,0.15,0.2,0.03162277660168378,1,0.40411707699968247
81,154,FarHighNarrow,0.2,0.15,0.1,0.012589254117941666,1,0.3914118739994592
81,155,FarHighWide,0.5,0.25,0.03,0.015848931924611127,1,0.5493898400000035
81,156,ThreeLinesControl,0.0,0.0,0.1,0.01995262314968879,0,0.4016864980003447
81,157,Constant,0.1,0.1,0.1,0.06309573444801932,1,0.36764862800009723
81,158,FarLowWide,0.03,0.25,0.5,0.015848931924611124,1,0.4859369960013282
81,159,ThreeLinesControl,0.0,0.0,0.1,0.025118864315095794,1,0.5950940330003505
81,160,ThreeLinesControl,0.0,0.0,0.1,0.01995262314968879,1,0.5690227979994233
81,161,FarHighNarrow,0.2,0.15,0.1,0.009999999999999995,0,0.4633565680014726
81,162,FarLowWide,0.03,0.25,0.5,0.012589254117941663,0,0.38909514999977546
81,163,FarLowWide,0.03,0.25,0.5,0.015848931924611124,1,0.38772356400113495
81,164,FarHighWide,0.5,0.25,0.03,0.012589254117941666,1,0.449924689000909
81,165,ThreeLinesControl,0.0,0.0,0.1,0.015848931924611127,1,0.3926773499988485
81,166,FarLowWide,0.03,0.25,0.5,0.012589254117941663,0,0.4302393549987755
81,167,FarHighNarrow,0.2,0.15,0.1,0.012589254117941666,1,0.43309335699996154
81,168,FarLowWide,0.03,0.25,0.5,0.015848931924611124,0,0.4553655030013033
81,169,FarLowWide,0.03,0.25,0.5,0.019952623149688785,1,0.5814384080003947
81,170,Constant,0.1,0.1,0.1,0.05011872336272722,1,0.3766644700008328
81,171,ThreeLinesControl,0.0,0.0,0.1,0.012589254117941666,0,99
81,172,FarLowNarrow,0.1,0.15,0.2,0.025118864315095787,0,0.31728892599858227
81,173,FarHighWide,0.5,0.25,0.03,0.009999999999999995,0,0.6412363930012361
81,174,FarLowNarrow,0.1,0.15,0.2,0.03162277660168378,1,0.383430566998868
81,175,Constant,0.1,0.1,0.1,0.03981071705534971,1,0.42144207499950426
81,176,Constant,0.1,0.1,0.1,0.031622776601683784,1,0.31457139600024675
81,177,FarHighNarrow,0.2,0.15,0.1,0.009999999999999995,1,0.44832190300076036
81,178,FarLowNarrow,0.1,0.15,0.2,0.025118864315095787,1,0.5269541540001228
81,179,FarLowWide,0.03,0.25,0.5,0.015848931924611124,1,0.6532125829999131
81,180,ThreeLinesControl,0.0,0.0,0.1,0.015848931924611127,0,0.3951840509998874
81,181,FarHighNarrow,0.2,0.15,0.1,0.00794328234724281,1,0.3682983279995824
81,182,FarHighNarrow,0.2,0.15,0.1,0.0063095734448019285,0,0.422567835999871
81,183,FarHighNarrow,0.2,0.15,0.1,0.00794328234724281,0,0.4290002880006796
81,184,FarHighWide,0.5,0.25,0.03,0.012589254117941666,1,0.3761596990007092
81,185,ThreeLinesControl,0.0,0.0,0.1,0.01995262314968879,0,99
81,186,Constant,0.1,0.1,0.1,0.02511886431509579,1,0.36902460000055726
81,187,FarLowWide,0.03,0.25,0.5,0.012589254117941663,0,0.43914278499869397
81,188,FarHighWide,0.5,0.25,0.03,0.009999999999999995,0,0.4453917789996922
81,189,FarLowNarrow_null,0.1,0.15,0.2,0.1,1,0.4735470159994293
81,190,FarHighNarrow,0.2,0.15,0.1,0.009999999999999995,0,0.4158684740013996
81,191,FarHighNarrow_null,0.2,0.15,0.1,0.07943282347242814,1,0.525804404000155
81,192,ThreeLinesControl,0.0,0.0,0.1,0.025118864315095794,1,0.37203027900068264
81,193,FarLowNarrow,0.1,0.15,0.2,0.019952623149688785,0,0.4982152929987933
81,194,FarLowWide,0.03,0.25,0.5,0.015848931924611124,1,0.48044765000122425
81,195,ThreeLinesControl,0.0,0.0,0.1,0.01995262314968879,1,0.366493053999875
81,196,FarLowNarrow,0.1,0.15,0.2,0.025118864315095787,1,0.5087289639996015
81,197,FarLowNarrow,0.1,0.15,0.2,0.019952623149688785,1,0.36048117699829163
81,198,ThreeLinesControl,0.0,0.0,0.1,0.015848931924611127,1,0.3919910849999724
81,199,FarHighNarrow,0.2,0.15,0.1,0.012589254117941666,1,0.46305260799999814
81,200,FarLowNarrow,0.1,0.15,0.2,0.015848931924611124,1,0.5211439850008901
81,201,FarHighNarrow,0.2,0.15,0.1,0.009999999999999995,1,0.4790979499994137
81,202,FarHighWide,0.5,0.25,0.03,0.012589254117941666,1,0.562376650999795
81,203,ThreeLinesControl,0.0,0.0,0.1,0.012589254117941666,0,0.40848121599992737
81,204,Constant,0.1,0.1,0.1,0.01995262314968879,0,0.5429325309996784
81,205,Constant,0.1,0.1,0.1,0.025118864315095794,1,0.3792908900013572
81,206,ThreeLinesControl,0.0,0.0,0.1,0.015848931924611127,1,0.4022745210004359
81,207,Constant,0.1,0.1,0.1,0.01995262314968879,1,0.42302836700037005
81,208,FarLowWide,0.03,0.25,0.5,0.012589254117941663,0,0.37315154899988556
81,209,Constant_null,0.1,0.1,0.1,0.09999999999999999,0,0.5065073359983217
81,210,Constant,0.1,0.1,0.1,0.015848931924611127,1,0.38465610099956393
81,211,Constant,0.1,0.1,0.1,0.012589254117941666,0,0.4879993699996703
81,212,ThreeLinesControl,0.0,0.0,0.1,0.012589254117941666,0,0.4220330779990036
81,213,ThreeLinesControl,0.0,0.0,0.1,0.015848931924611127,1,0.41792315499878896
81,214,ThreeLinesControl_null,0.0,0.0,0.1,0.1,1,0.6002777379999316
81,215,ThreeLinesControl,0.0,0.0,0.1,0.012589254117941666,1,0.6145549299999402
81,216,FarHighWide_null,0.5,0.25,0.03,0.1,1,0.6336260609987221
81,217,FarHighWide_null,0.5,0.25,0.03,0.07943282347242815,1,0.46379218400034006
81,218,FarLowNarrow,0.1,0.15,0.2,0.012589254117941663,1,0.5258954490000178
81,219,FarLowNarrow_null,0.1,0.15,0.2,0.07943282347242815,1,0.5211075099996378
81,220,FarLowWide,0.03,0.25,0.5,0.015848931924611124,1,0.4311845899992477
81,221,ThreeLinesControl,0.0,0.0,0.1,0.009999999999999995,1,0.5794409610007278
81,222,FarHighNarrow_null,0.2,0.15,0.1,0.06309573444801932,1,0.3452275349991396
81,223,FarLowNarrow,0.1,0.15,0.2,0.009999999999999992,0,0.49562978300127725
81,224,Constant,0.1,0.1,0.1,0.015848931924611127,1,0.40560593100053666
81,225,FarLowWide,0.03,0.25,0.5,0.012589254117941663,0,0.36410456500016153
81,226,FarLowNarrow,0.1,0.15,0.2,0.012589254117941663,0,0.5302138269998977
81,227,ThreeLinesControl,0.0,0.0,0.1,0.00794328234724281,0,0.39220152199959557
81,228,FarHighWide,0.5,0.25,0.03,0.009999999999999995,0,0.45558316799906606
81,229,FarHighNarrow,0.2,0.15,0.1,0.00794328234724281,0,0.34056695099934586
81,230,FarLowNarrow,0.1,0.15,0.2,0.015848931924611124,0,99
81,231,FarLowWide,0.03,0.25,0.5,0.015848931924611124,0,0.3757355400011875
81,232,FarHighNarrow,0.2,0.15,0.1,0.009999999999999995,1,0.3710193099996104
81,233,ThreeLinesControl,0.0,0.0,0.1,0.009999999999999995,0,0.3929768560010416
81,234,FarLowNarrow,0.1,0.15,0.2,0.019952623149688785,1,0.4300770870013366
81,235,FarLowWide,0.03,0.25,0.5,0.019952623149688785,0,0.44926047300032224
81,236,FarHighNarrow,0.2,0.15,0.1,0.00794328234724281,1,0.5995566410001629
81,237,FarLowNarrow_null,0.1,0.15,0.2,0.06309573444801932,1,0.37336488800065126
81,238,FarHighNarrow,0.2,0.15,0.1,0.0063095734448019285,0,0.3468269170007261
81,239,ThreeLinesControl,0.0,0.0,0.1,0.012589254117941666,0,0.4409820939999918
81,240,ThreeLinesControl,0.0,0.0,0.1,0.015848931924611127,1,0.4793381409999711
81,241,Constant,0.1,0.1,0.1,0.012589254117941666,0,0.5062657140006195
81,242,FarHighWide_null,0.5,0.25,0.03,0.06309573444801932,0,0.544473157999164
81,243,ThreeLinesControl,0.0,0.0,0.1,0.012589254117941666,1,0.40682720499899006
81,244,FarLowNarrow,0.1,0.15,0.2,0.015848931924611124,0,0.3379303849997086
81,245,ThreeLinesControl,0.0,0.0,0.1,0.009999999999999995,0,0.3749807479998708
81,246,FarHighWide,0.5,0.25,0.03,0.012589254117941666,1,0.5810935029985558
81,247,FarLowNarrow,0.1,0.15,0.2,0.019952623149688785,0,0.4033271059997787
81,248,Constant,0.1,0.1,0.1,0.015848931924611127,1,0.4654485869996279
81,249,FarLowNarrow,0.1,0.15,0.2,0.025118864315095787,1,0.3905903049999324
81,250,ThreeLinesControl_null,0.0,0.0,0.1,0.07943282347242815,1,0.48462983399986115
81,251,Constant,0.1,0.1,0.1,0.012589254117941666,0,0.5388952840003185
81,252,FarLowNarrow,0.1,0.15,0.2,0.019952623149688785,0,0.5371282099986274
81,253,Constant,0.1,0.1,0.1,0.015848931924611127,0,0.5601464659994235
81,254,FarLowNarrow_null,0.1,0.15,0.2,0.05011872336272722,1,0.5761632609992375
81,255,ThreeLinesControl,0.0,0.0,0.1,0.012589254117941666,0,0.41063547799967637
81,256,ThreeLinesControl,0.0,0.0,0.1,0.015848931924611127,0,99
81,257,FarLowNarrow,0.1,0.15,0.2,0.025118864315095787,1,0.3879716629999166
81,258,FarLowWide,0.03,0.25,0.5,0.025118864315095787,1,0.33806606600046507
81,259,FarLowNarrow,0.1,0.15,0.2,0.019952623149688785,1,0.28814327200052503
81,260,FarLowWide,0.03,0.25,0.5,0.019952623149688785,0,0.4592515349995665
81,261,FarHighWide,0.5,0.25,0.03,0.009999999999999995,0,0.6015068979995704
81,262,ThreeLinesControl,0.0,0.0,0.1,0.01995262314968879,0,0.39131621600063227
81,263,Constant,0.1,0.1,0.1,0.01995262314968879,0,99
81,264,FarHighNarrow,0.2,0.15,0.1,0.00794328234724281,0,0.6104377030005708
81,265,ThreeLinesControl,0.0,0.0,0.1,0.025118864315095794,1,0.6887629579996428
81,266,ThreeLinesControl,0.0,0.0,0.1,0.01995262314968879,1,0.446869257999424
81,267,ThreeLinesControl,0.0,0.0,0.1,0.015848931924611127,0,99
81,268,FarLowWide,0.03,0.25,0.5,0.025118864315095787,1,0.41152838400012115
81,269,FarLowWide,0.03,0.25,0.5,0.019952623149688785,1,0.3866826810008206
81,270,FarHighNarrow,0.2,0.15,0.1,0.009999999999999995,0,99
81,271,FarHighWide,0.5,0.25,0.03,0.012589254117941666,0,0.43690756899923144
81,272,FarHighWide,0.5,0.25,0.03,0.015848931924611127,0,0.35514896099994075
81,273,Constant,0.1,0.1,0.1,0.025118864315095794,1,0.5521529659999942
81,274,FarLowWide,0.03,0.25,0.5,0.015848931924611124,0,0.41128613899854827
81,275,FarLowNarrow,0.1,0.15,0.2,0.015848931924611124,1,0.4103444650008896
81,276,FarLowNarrow_null,0.1,0.15,0.2,0.03981071705534971,1,0.4375240819990722
81,277,Constant,0.1,0.1,0.1,0.01995262314968879,1,0.5068523949994415
81,278,ThreeLinesControl,0.0,0.0,0.1,0.01995262314968879,0,0.5128755860005185
81,279,FarHighWide_null,0.5,0.25,0.03,0.07943282347242814,1,0.4550226579995069
81,280,Constant,0.1,0.1,0.1,0.015848931924611127,0,0.493153273999269
81,281,Constant,0.1,0.1,0.1,0.01995262314968879,0,0.7553040059992782
81,282,FarHighNarrow_null,0.2,0.15,0.1,0.05011872336272722,0,99
81,283,FarHighNarrow,0.2,0.15,0.1,0.012589254117941666,0,0.5023503149986936
81,284,ThreeLinesControl,0.0,0.0,0.1,0.025118864315095794,1,0.5331104680008139
81,285,FarHighWide,0.5,0.25,0.03,0.01995262314968879,0,0.4922929389995261
81,286,FarLowWide,0.03,0.25,0.5,0.019952623149688785,0,0.4344984659983311
81,287,FarHighNarrow,0.2,0.15,0.1,0.015848931924611127,1,0.6221176190010738
81,288,Constant,0.1,0.1,0.1,0.025118864315095794,1,0.4443154099990352
81,289,FarHighNarrow,0.2,0.15,0.1,0.012589254117941666,1,0.47357408900097653
81,290,Constant,0.1,0.1,0.1,0.01995262314968879,1,0.4364165429997229
81,291,FarLowNarrow_null,0.1,0.15,0.2,0.031622776601683784,1,0.4509878930002742
81,292,FarHighWide,0.5,0.25,0.03,0.025118864315095794,1,0.4936705609998171
81,293,FarLowNarrow_null,0.1,0.15,0.2,0.02511886431509579,1,0.4360802569990483
81,294,FarLowNarrow,0.1,0.15,0.2,0.012589254117941663,0,0.36225422699862975
81,295,FarLowNarrow,0.1,0.15,0.2,0.015848931924611124,1,0.36056998899948667
81,296,FarLowNarrow,0.1,0.15,0.2,0.012589254117941663,0,0.4144485609995172
81,297,FarHighNarrow,0.2,0.15,0.1,0.009999999999999995,0,0.3567092289995344
81,298,FarHighNarrow,0.2,0.15,0.1,0.012589254117941666,1,0.6188672439984657
81,299,FarHighWide,0.5,0.25,0.03,0.01995262314968879,1,0.4395574249992933
81,300,FarLowNarrow_null,0.1,0.15,0.2,0.01995262314968879,1,0.4219459329997335
81,301,FarHighWide,0.5,0.25,0.03,0.015848931924611127,1,0.5646070590009913
81,302,Constant,0.1,0.1,0.1,0.015848931924611127,0,0.5238758029991004
81,303,Constant,0.1,0.1,0.1,0.01995262314968879,1,0.48692020700036664
81,304,FarHighWide,0.5,0.25,0.03,0.012589254117941666,1,0.5098155960004078
81,305,FarHighWide,0.5,0.25,0.03,0.009999999999999995,0,0.33154510999884224
81,306,FarLowNarrow,0.1,0.15,0.2,0.015848931924611124,1,0.7107423170000402
81,307,FarHighNarrow,0.2,0.15,0.1,0.009999999999999995,1,0.42023455900016415
81,308,FarHighWide,0.5,0.25,0.03,0.012589254117941666,1,0.4663540860001376
81,309,FarLowNarrow,0.1,0.15,0.2,0.012589254117941663,1,0.41335825199894316
81,310,FarHighWide,0.5,0.25,0.03,0.009999999999999995,0,0.4117112479998468
81,311,FarLowWide,0.03,0.25,0.5,0.025118864315095787,1,0.40159359099925496
81,312,FarLowWide,0.03,0.25,0.5,0.019952623149688785,0,0.33583761699992465
81,313,FarHighWide,0.5,0.25,0.03,0.012589254117941666,1,0.4219403349998174
81,314,FarHighWide_null,0.5,0.25,0.03,0.06309573444801932,0,0.4992043239999475
81,315,FarLowWide,0.03,0.25,0.5,0.025118864315095787,1,0.4332714880001731
81,316,FarHighNarrow,0.2,0.15,0.1,0.00794328234724281,1,0.4235682079997787
81,317,FarHighWide,0.5,0.25,0.03,0.009999999999999995,1,0.5817124549994332
81,318,FarLowNarrow,0.1,0.15,0.2,0.009999999999999992,0,0.34919099699982326
81,319,FarLowNarrow,0.1,0.15,0.2,0.012589254117941663,0,0.6513750960002653
81,320,FarHighWide,0.5,0.25,0.03,0.00794328234724281,0,0.46306109000033757
81,321,Constant,0.1,0.1,0.1,0.015848931924611127,1,0.5162575329995889
81,322,FarHighNarrow,0.2,0.15,0.1,0.0063095734448019285,0,0.43121612499999173
81,323,FarHighWide,0.5,0.25,0.03,0.009999999999999995,1,0.5573674290008057
81,324,FarHighNarrow,0.2,0.15,0.1,0.00794328234724281,0,0.5558277959989937
81,325,FarHighNarrow,0.2,0.15,0.1,0.009999999999999995,0,0.43984617900059675
81,326,FarLowWide,0.03,0.25,0.5,0.019952623149688785,1,0.5740634009998757
81,327,FarHighWide,0.5,0.25,0.03,0.00794328234724281,1,0.618964593999408
81,328,FarLowNarrow,0.1,0.15,0.2,0.015848931924611124,1,0.42534525799965195
81,329,Constant,0.1,0.1,0.1,0.012589254117941666,1,0.36728056900028605
81,330,ThreeLinesControl,0.0,0.0,0.1,0.01995262314968879,1,0.4854709070004901
81,331,Constant,0.1,0.1,0.1,0.009999999999999995,0,99
81,332,FarHighWide,0.5,0.25,0.03,0.0063095734448019285,0,0.4177852460015856
81,333,ThreeLinesControl,0.0,0.0,0.1,0.015848931924611127,0,0.4085159999995085
81,334,FarHighNarrow,0.2,0.15,0.1,0.012589254117941666,0,0.6708164390001912
81,335,Constant,0.1,0.1,0.1,0.012589254117941666,1,0.5179768660000263
81,336,FarHighWide,0.5,0.25,0.03,0.00794328234724281,1,0.5123971149987483
81,337,FarHighWide,0.5,0.25,0.03,0.0063095734448019285,0,99
81,338,FarHighWide_null,0.5,0.25,0.03,0.07943282347242814,1,0.628627594000136
81,339,FarHighNarrow_null,0.2,0.15,0.1,0.06309573444801932,1,0.4559864890015888
81,340,Constant,0.1,0.1,0.1,0.009999999999999995,1,0.5978724239994335
81,341,FarLowWide,0.03,0.25,0.5,0.015848931924611124,0,0.4332634570000664
81,342,Constant,0.1,0.1,0.1,0.00794328234724281,1,0.5423781179997604
81,343,FarLowNarrow,0.1,0.15,0.2,0.012589254117941663,1,0.940386717000365
81,344,ThreeLinesControl,0.0,0.0,0.1,0.01995262314968879,0,99
81,345,FarHighNarrow,0.2,0.15,0.1,0.015848931924611127,1,0.3527091489995655
81,346,FarHighNarrow_null,0.2,0.15,0.1,0.05011872336272722,1,0.44704406399978325
81,347,ThreeLinesControl,0.0,0.0,0.1,0.025118864315095794,1,0.6930120279994298
81,348,FarLowWide_null,0.03,0.25,0.5,0.1,0,99
81,349,ThreeLinesControl,0.0,0.0,0.1,0.01995262314968879,1,0.4338076789990737
81,350,FarLowWide_null,0.03,0.25,0.5,0.1,1,0.350538199998482
81,351,Constant,0.1,0.1,0.1,0.0063095734448019285,0,99
81,352,FarHighWide,0.5,0.25,0.03,0.00794328234724281,0,99
81,353,FarHighWide,0.5,0.25,0.03,0.009999999999999995,1,0.5272383529991203
81,354,Constant_null,0.1,0.1,0.1,0.1,1,0.4051187060013035
81,355,Constant,0.1,0.1,0.1,0.00794328234724281,1,0.5124034489999758
81,356,Constant,0.1,0.1,0.1,0.0063095734448019285,0,99
81,357,FarHighWide,0.5,0.25,0.03,0.00794328234724281,1,0.4668554449999647
81,358,Constant,0.1,0.1,0.1,0.00794328234724281,1,0.4487697789991216
81,359,FarHighNarrow,0.2,0.15,0.1,0.012589254117941666,1,0.437824095999531
81,360,FarLowWide,0.03,0.25,0.5,0.019952623149688785,1,0.5054215370000747
81,361,FarLowWide,0.03,0.25,0.5,0.015848931924611124,0,0.35916364600052475
81,362,FarHighWide,0.5,0.25,0.03,0.0063095734448019285,0,99
81,363,Constant_null,0.1,0.1,0.1,0.07943282347242815,1,0.3759706550008559
81,364,Constant,0.1,0.1,0.1,0.0063095734448019285,0,0.4070163190008316
81,365,FarLowNarrow,0.1,0.15,0.2,0.009999999999999992,0,0.3630167020000954
81,366,ThreeLinesControl,0.0,0.0,0.1,0.015848931924611127,1,0.5372160480001185
81,367,Constant,0.1,0.1,0.1,0.00794328234724281,0,0.3833188649987278
81,368,FarHighWide,0.5,0.25,0.03,0.00794328234724281,1,0.5884348219988169
81,369,FarLowWide,0.03,0.25,0.5,0.019952623149688785,0,0.4425443220006855
81,370,ThreeLinesControl,0.0,0.0,0.1,0.012589254117941666,0,0.4164280240001972
81,371,ThreeLinesControl,0.0,0.0,0.1,0.015848931924611127,0,0.4310373669995897
81,372,ThreeLinesControl,0.0,0.0,0.1,0.01995262314968879,1,0.550554387999
81,373,FarLowNarrow,0.1,0.15,0.2,0.012589254117941663,1,0.45917529500002274
81,374,FarHighNarrow,0.2,0.15,0.1,0.009999999999999995,0,0.4562226450016169
81,375,FarHighNarrow,0.2,0.15,0.1,0.012589254117941666,1,0.38212841600034153
81,376,FarHighWide,0.5,0.25,0.03,0.0063095734448019285,1,0.44151906699880783
81,377,FarLowWide,0.03,0.25,0.5,0.025118864315095787,0,0.3118769610009622
81,378,Constant,0.1,0.1,0.1,0.009999999999999995,0,0.6859932860006666
81,379,FarLowWide,0.03,0.25,0.5,0.03162277660168378,1,0.5048770249995869
81,380,FarLowNarrow,0.1,0.15,0.2,0.009999999999999992,0,0.3672499920012342
81,381,FarLowNarrow,0.1,0.15,0.2,0.012589254117941663,1,0.3892803039998398
81,382,FarLowWide,0.03,0.25,0.5,0.025118864315095787,1,0.46560602999852563
81,383,Constant,0.1,0.1,0.1,0.012589254117941666,0,0.44736971400016046
81,384,FarHighWide,0.5,0.25,0.03,0.005011872336272719,1,0.4297069299991563
81,385,FarLowWide,0.03,0.25,0.5,0.019952623149688785,1,0.4041148249998514
81,386,ThreeLinesControl,0.0,0.0,0.1,0.015848931924611127,0,0.30625424000027124
81,387,FarHighWide,0.5,0.25,0.03,0.00398107170553497,0,0.7057609540006524
81,388,FarLowNarrow,0.1,0.15,0.2,0.009999999999999992,0,0.5503284950009402
81,389,Constant,0.1,0.1,0.1,0.015848931924611127,1,0.36697060799997416
81,390,ThreeLinesControl,0.0,0.0,0.1,0.01995262314968879,0,0.33875767800054746
81,391,Constant,0.1,0.1,0.1,0.012589254117941666,0,0.4479195660005644
81,392,FarLowWide_null,0.03,0.25,0.5,0.07943282347242815,1,0.35770117199899687
81,393,FarLowNarrow,0.1,0.15,0.2,0.012589254117941663,1,0.3931650329996046
81,394,FarHighNarrow,0.2,0.15,0.1,0.009999999999999995,1,0.5192975589998241
81,395,ThreeLinesControl,0.0,0.0,0.1,0.025118864315095794,1,0.6344789310005581
81,396,FarHighNarrow,0.2,0.15,0.1,0.00794328234724281,1,0.3526036999992357
81,397,FarLowWide,0.03,0.25,0.5,0.015848931924611124,1,0.36669764799989935
81,398,FarHighWide,0.5,0.25,0.03,0.00501187233627272,0,0.4999664749993826
81,399,Constant,0.1,0.1,0.1,0.015848931924611127,1,0.42607350000071165
81,400,ThreeLinesControl,0.0,0.0,0.1,0.01995262314968879,1,0.38420137700086343
81,401,FarLowNarrow,0.1,0.15,0.2,0.009999999999999992,0,0.4054175689998374
81,402,FarLowNarrow,0.1,0.15,0.2,0.012589254117941663,1,0.4353503450001881
81,403,FarLowWide,0.03,0.25,0.5,0.012589254117941663,0,0.3309441560013511
81,404,ThreeLinesControl,0.0,0.0,0.1,0.015848931924611127,1,0.42470157599927916
81,405,FarHighNarrow,0.2,0.15,0.1,0.0063095734448019285,1,0.39145592100067006
81,406,FarLowNarrow,0.1,0.15,0.2,0.009999999999999992,0,0.40314133599895285
81,407,ThreeLinesControl,0.0,0.0,0.1,0.012589254117941666,0,0.4001692070014542
81,408,FarHighNarrow,0.2,0.15,0.1,0.005011872336272719,1,0.5825223810006719
81,409,Constant,0.1,0.1,0.1,0.012589254117941666,1,0.3784973669989995
81,410,FarLowWide,0.03,0.25,0.5,0.015848931924611124,0,0.359267539000939
81,411,FarLowWide,0.03,0.25,0.5,0.019952623149688785,1,0.46188321800036647
81,412,FarLowWide,0.03,0.25,0.5,0.015848931924611124,1,0.3367622410005424
81,413,Constant,0.1,0.1,0.1,0.009999999999999995,0,0.43905829200048174
81,414,ThreeLinesControl,0.0,0.0,0.1,0.015848931924611127,1,0.46833888800028944
81,415,FarHighNarrow,0.2,0.15,0.1,0.00398107170553497,1,0.44253296699935163
81,416,FarLowWide,0.03,0.25,0.5,0.012589254117941663,0,0.40047036800024216
81,417,FarLowWide,0.03,0.25,0.5,0.015848931924611124,1,0.4546314999988681
81,418,Constant,0.1,0.1,0.1,0.012589254117941666,0,0.7002536350009905
81,419,FarHighNarrow_null,0.2,0.15,0.1,0.03981071705534971,1,0.745985034000114
81,420,Constant_null,0.1,0.1,0.1,0.06309573444801932,1,0.46533925699986867
81,421,Constant,0.1,0.1,0.1,0.015848931924611127,1,0.3037465540000994
81,422,FarLowNarrow,0.1,0.15,0.2,0.012589254117941663,1,0.40358158699928026
81,423,FarHighWide,0.5,0.25,0.03,0.006309573444801929,0,0.5134546820008836
81,424,Constant,0.1,0.1,0.1,0.012589254117941666,1,0.6159447360005288
81,425,FarHighNarrow_null,0.2,0.15,0.1,0.031622776601683784,1,0.48292965899963747
81,426,FarLowNarrow,0.1,0.15,0.2,0.009999999999999992,0,0.5611643079992064
81,427,Constant,0.1,0.1,0.1,0.009999999999999995,1,0.5502503549996618
81,428,ThreeLinesControl,0.0,0.0,0.1,0.012589254117941666,0,0.4658547670005646
81,429,Constant,0.1,0.1,0.1,0.00794328234724281,0,0.5033583250005904
81,430,FarLowNarrow,0.1,0.15,0.2,0.012589254117941663,0,0.4204846949996863
81,431,ThreeLinesControl_null,0.0,0.0,0.1,0.06309573444801932,1,0.5625378980003006
81,432,ThreeLinesControl,0.0,0.0,0.1,0.015848931924611127,1,0.5690012269988074
81,433,FarHighNarrow,0.2,0.15,0.1,0.0031622776601683772,0,0.4630685739994078
81,434,FarHighWide,0.5,0.25,0.03,0.007943282347242812,0,0.5971370560000651
81,435,FarHighNarrow_null,0.2,0.15,0.1,0.02511886431509579,0,0.4754625900004612
81,436,FarHighNarrow,0.2,0.15,0.1,0.00398107170553497,0,0.5615863149996585
81,437,FarHighWide,0.5,0.25,0.03,0.009999999999999997,1,0.744832022999617
81,438,FarLowNarrow,0.1,0.15,0.2,0.015848931924611124,1,0.47942687000067963
81,439,Constant,0.1,0.1,0.1,0.009999999999999995,1,0.6350548800000979
81,440,FarHighNarrow,0.2,0.15,0.1,0.00501187233627272,1,0.34503513899835525
81,441,ThreeLinesControl,0.0,0.0,0.1,0.012589254117941666,0,0.4364059149993409
81,442,FarHighWide,0.5,0.25,0.03,0.007943282347242812,0,0.7943616400007159
81,443,FarLowWide,0.03,0.25,0.5,0.012589254117941663,0,0.5516307079997205
81,444,Constant,0.1,0.1,0.1,0.00794328234724281,1,0.7318416210000578
81,445,FarLowNarrow,0.1,0.15,0.2,0.012589254117941663,0,99
81,446,Constant,0.1,0.1,0.1,0.0063095734448019285,0,0.47076391500013415
81,447,FarHighWide,0.5,0.25,0.03,0.009999999999999997,1,0.5813944540004741
81,448,FarLowWide,0.03,0.25,0.5,0.015848931924611124,0,0.44325102100083313
81,449,FarHighNarrow,0.2,0.15,0.1,0.00398107170553497,0,0.6484731860000466
81,450,FarLowWide,0.03,0.25,0.5,0.019952623149688785,1,0.39847997299875715
81,451,FarLowNarrow,0.1,0.15,0.2,0.015848931924611124,1,0.3407494399998541
81,452,ThreeLinesControl,0.0,0.0,0.1,0.015848931924611127,1,0.3874322369993024
81,453,FarHighNarrow,0.2,0.15,0.1,0.00501187233627272,0,0.41834432299947366
81,454,FarHighNarrow,0.2,0.15,0.1,0.006309573444801929,0,0.5284325329994317
81,455,FarHighNarrow,0.2,0.15,0.1,0.007943282347242812,1,0.5644594719997258
81,456,FarLowWide,0.03,0.25,0.5,0.015848931924611124,0,0.5950936930003081
81,457,FarHighNarrow,0.2,0.15,0.1,0.006309573444801929,0,0.4967071720002423
81,458,FarHighNarrow,0.2,0.15,0.1,0.007943282347242812,0,0.4436217519996717
81,459,FarHighWide,0.5,0.25,0.03,0.007943282347242812,1,0.46606183999938366
81,460,FarHighWide,0.5,0.25,0.03,0.006309573444801929,0,0.42886644000100205
81,461,Constant,0.1,0.1,0.1,0.00794328234724281,0,0.4433916819998558
81,462,FarLowWide,0.03,0.25,0.5,0.019952623149688785,1,0.4813018779987033
81,463,Constant,0.1,0.1,0.1,0.009999999999999995,0,0.6942456409997249
81,464,FarLowWide,0.03,0.25,0.5,0.015848931924611124,1,0.6445441750001919
81,465,FarHighWide,0.5,0.25,0.03,0.007943282347242812,1,0.5628409929995541
81,466,Constant,0.1,0.1,0.1,0.012589254117941666,0,0.4091070589984156
81,467,FarHighNarrow,0.2,0.15,0.1,0.009999999999999997,1,0.4630236760003754
81,468,FarHighWide,0.5,0.25,0.03,0.006309573444801929,0,0.43663683500017214
81,469,Constant,0.1,0.1,0.1,0.015848931924611127,1,0.42773757800023304
81,470,FarLowWide,0.03,0.25,0.5,0.012589254117941663,0,0.3386968419999903
81,471,ThreeLinesControl,0.0,0.0,0.1,0.012589254117941666,1,0.46152589399935096
81,472,Constant,0.1,0.1,0.1,0.012589254117941666,1,0.3238527310004429
81,473,FarLowNarrow,0.1,0.15,0.2,0.012589254117941663,0,0.3220424399987678
81,474,Constant_null,0.1,0.1,0.1,0.05011872336272722,1,0.5093135340011941
81,475,ThreeLinesControl,0.0,0.0,0.1,0.009999999999999995,0,0.45146052299969597
81,476,Constant,0.1,0.1,0.1,0.009999999999999995,0,0.4305217900000571
81,477,FarHighNarrow,0.2,0.15,0.1,0.007943282347242812,1,0.3566998960013734
81,478,FarHighNarrow,0.2,0.15,0.1,0.006309573444801929,0,0.5627431159991829
81,479,FarLowNarrow,0.1,0.15,0.2,0.015848931924611124,1,0.3761067790001107
81,480,FarLowNarrow,0.1,0.15,0.2,0.012589254117941663,1,0.8924418530004914
81,481,FarLowNarrow,0.1,0.15,0.2,0.009999999999999992,0,0.5605527979987528
81,482,FarHighNarrow,0.2,0.15,0.1,0.007943282347242812,0,0.4946217889992113
81,483,FarHighWide,0.5,0.25,0.03,0.007943282347242812,0,0.5220324590009113
81,484,FarHighNarrow,0.2,0.15,0.1,0.009999999999999997,0,0.39983003299857955
81,485,ThreeLinesControl,0.0,0.0,0.1,0.012589254117941666,0,0.40492522599924996
81,486,FarHighWide,0.5,0.25,0.03,0.009999999999999997,1,0.4112559240002156
81,487,FarHighNarrow,0.2,0.15,0.1,0.012589254117941668,0,0.4573764899996604
81,488,Constant,0.1,0.1,0.1,0.012589254117941666,0,0.4557526480002707
81,489,FarLowWide,0.03,0.25,0.5,0.015848931924611124,0,0.421832694000841
81,490,FarHighWide,0.5,0.25,0.03,0.007943282347242812,1,0.45212661199911963
81,491,ThreeLinesControl_null,0.0,0.0,0.1,0.05011872336272722,0,99
81,492,FarHighWide,0.5,0.25,0.03,0.006309573444801929,0,0.6875531149999006
81,493,FarLowNarrow_null,0.1,0.15,0.2,0.015848931924611127,1,0.6308763389988599
81,494,Constant,0.1,0.1,0.1,0.015848931924611127,1,0.4334618679986306
81,495,Constant,0.1,0.1,0.1,0.012589254117941666,1,0.41547269399961806
81,496,FarLowWide,0.03,0.25,0.5,0.019952623149688785,0,0.3898021029999654
81,497,Constant,0.1,0.1,0.1,0.009999999999999995,0,0.5606014389995835
81,498,FarHighNarrow,0.2,0.15,0.1,0.01584893192461113,1,0.343124054999862
81,499,FarHighNarrow,0.2,0.15,0.1,0.012589254117941668,1,0.39724741899954097
81,500,Constant,0.1,0.1,0.1,0.012589254117941666,1,0.3932994620008685
81,501,FarHighWide,0.5,0.25,0.03,0.007943282347242812,0,99
81,502,Constant,0.1,0.1,0.1,0.009999999999999995,0,0.4924539069997991
81,503,FarHighNarrow,0.2,0.15,0.1,0.009999999999999997,1,0.6190218280007684
81,504,FarLowWide,0.03,0.25,0.5,0.025118864315095787,0,0.5369402129999798
81,505,FarHighNarrow,0.2,0.15,0.1,0.007943282347242812,0,0.6390461239989236
81,506,FarHighWide,0.5,0.25,0.03,0.009999999999999997,0,0.6452676340013568
81,507,FarLowWide,0.03,0.25,0.5,0.03162277660168378,1,0.3074111610003456
81,508,FarLowNarrow,0.1,0.15,0.2,0.012589254117941663,1,0.6329586270003347
81,509,FarHighWide_null,0.5,0.25,0.03,0.06309573444801932,1,0.47204779100138694
81,510,FarLowNarrow,0.1,0.15,0.2,0.009999999999999992,1,0.5339936879991001
81,511,ThreeLinesControl_null,0.0,0.0,0.1,0.06309573444801932,1,0.4171078439994744
81,512,Constant,0.1,0.1,0.1,0.012589254117941666,0,0.43930875200021546
81,513,FarLowNarrow,0.1,0.15,0.2,0.007943282347242809,0,0.4743630290013243
81,514,ThreeLinesControl,0.0,0.0,0.1,0.015848931924611127,1,0.5285724400000618
81,515,Constant,0.1,0.1,0.1,0.015848931924611127,1,0.3415965429994685
81,516,ThreeLinesControl,0.0,0.0,0.1,0.012589254117941666,1,0.5220225209995988
81,517,FarLowWide,0.03,0.25,0.5,0.025118864315095787,1,0.5358608869992167
81,518,FarHighWide,0.5,0.25,0.03,0.012589254117941668,0,0.46209408399954555
81,519,FarHighWide,0.5,0.25,0.03,0.01584893192461113,0,0.6362137849991996
81,520,Constant,0.1,0.1,0.1,0.012589254117941666,1,0.5224109520004276
81,521,FarLowWide,0.03,0.25,0.5,0.019952623149688785,1,0.40054121399953146
81,522,Constant,0.1,0.1,0.1,0.009999999999999995,0,0.654636601000675
81,523,ThreeLinesControl,0.0,0.0,0.1,0.009999999999999995,0,0.54807849899953
81,524,FarHighNarrow,0.2,0.15,0.1,0.009999999999999997,1,0.3699296510003478
81,525,ThreeLinesControl,0.0,0.0,0.1,0.012589254117941666,1,0.3039867450006568
81,526,FarLowWide,0.03,0.25,0.5,0.015848931924611124,1,0.4156881729995803
81,527,ThreeLinesControl,0.0,0.0,0.1,0.009999999999999995,0,0.378506072998789
81,528,FarLowNarrow,0.1,0.15,0.2,0.009999999999999993,0,0.504382909000924
81,529,FarLowWide,0.03,0.25,0.5,0.012589254117941663,0,0.34001852400069765
81,530,FarLowNarrow,0.1,0.15,0.2,0.012589254117941664,1,0.5537971280009515
81,531,FarHighNarrow,0.2,0.15,0.1,0.007943282347242812,1,0.5751279899996007
81,532,Constant,0.1,0.1,0.1,0.012589254117941666,1,0.6111449799991533
81,533,FarHighNarrow,0.2,0.15,0.1,0.006309573444801929,0,0.4973213220000616
81,534,FarHighWide,0.5,0.25,0.03,0.019952623149688792,1,0.40736035400004766
81,535,Constant,0.1,0.1,0.1,0.009999999999999995,1,0.4376283830006287
81,536,FarHighWide,0.5,0.25,0.03,0.01584893192461113,1,0.4199626480003644
81,537,FarHighNarrow_null,0.2,0.15,0.1,0.031622776601683784,1,0.401856456999667
81,538,FarLowWide,0.03,0.25,0.5,0.015848931924611124,1,0.43090354400010256
81,539,Constant,0.1,0.1,0.1,0.00794328234724281,1,0.3901890170000115
81,540,FarLowWide,0.03,0.25,0.5,0.012589254117941663,0,99
81,541,FarLowNarrow,0.1,0.15,0.2,0.009999999999999993,1,0.39254227800120134
81,542,FarLowWide,0.03,0.25,0.5,0.015848931924611124,1,0.3918693470004655
81,543,FarHighWide,0.5,0.25,0.03,0.012589254117941668,1,0.4187899540011131
81,544,FarLowNarrow,0.1,0.15,0.2,0.007943282347242809,1,0.43286693900154205
81,545,FarHighWide,0.5,0.25,0.03,0.009999999999999997,1,0.40715006299978995
81,546,FarHighWide,0.5,0.25,0.03,0.007943282347242812,0,99
81,547,ThreeLinesControl,0.0,0.0,0.1,0.012589254117941666,0,0.5673098360002768
81,548,FarLowNarrow,0.1,0.15,0.2,0.006309573444801927,0,99
81,549,FarLowWide,0.03,0.25,0.5,0.012589254117941663,0,0.4666924529992684
81,550,FarLowWide,0.03,0.25,0.5,0.015848931924611124,1,0.384891850000713
81,551,FarHighWide,0.5,0.25,0.03,0.009999999999999997,1,0.50990374399953
81,552,FarLowWide,0.03,0.25,0.5,0.012589254117941663,0,0.5482580460011377
81,553,FarHighWide,0.5,0.25,0.03,0.007943282347242812,1,0.45018768400041154
81,554,FarHighWide_null,0.5,0.25,0.03,0.05011872336272722,1,0.4645925080003508
81,555,ThreeLinesControl,0.0,0.0,0.1,0.015848931924611127,0,0.5826301630004309
81,556,ThreeLinesControl,0.0,0.0,0.1,0.01995262314968879,1,0.3654808349983796
81,557,FarLowWide,0.03,0.25,0.5,0.015848931924611124,1,0.5956294349998643
81,558,FarLowNarrow,0.1,0.15,0.2,0.007943282347242809,0,0.432875211999999
81,559,Constant,0.1,0.1,0.1,0.0063095734448019285,0,0.4202014810016408
81,560,ThreeLinesControl,0.0,0.0,0.1,0.015848931924611127,1,0.4412226519998512
81,561,ThreeLinesControl,0.0,0.0,0.1,0.012589254117941666,1,0.3991472879988578
81,562,FarHighNarrow,0.2,0.15,0.1,0.007943282347242812,1,0.6587380370001483
81,563,FarLowNarrow_null,0.1,0.15,0.2,0.012589254117941666,1,0.41672542299966153
81,564,FarLowWide,0.03,0.25,0.5,0.012589254117941663,0,0.4068638150001789
81,565,FarHighNarrow,0.2,0.15,0.1,0.006309573444801929,0,0.5560379229991668
81,566,FarLowWide,0.03,0.25,0.5,0.015848931924611124,0,0.3770096749994991
81,567,FarLowNarrow,0.1,0.15,0.2,0.009999999999999993,0,0.5513273359993036
81,568,ThreeLinesControl,0.0,0.0,0.1,0.009999999999999995,0,0.4454227030000766
81,569,FarHighWide,0.5,0.25,0.03,0.006309573444801929,0,99
81,570,Constant,0.1,0.1,0.1,0.00794328234724281,0,0.47387173699826235
81,571,ThreeLinesControl,0.0,0.0,0.1,0.012589254117941666,1,0.5126952930004336
81,572,FarHighNarrow,0.2,0.15,0.1,0.007943282347242812,0,0.47207668900045974
81,573,ThreeLinesControl,0.0,0.0,0.1,0.009999999999999995,0,0.4123944169987226
81,574,FarLowNarrow,0.1,0.15,0.2,0.012589254117941664,1,0.3623898009991535
81,575,ThreeLinesControl,0.0,0.0,0.1,0.012589254117941666,0,0.4304164610002772
81,576,FarLowNarrow,0.1,0.15,0.2,0.009999999999999993,0,0.49977634599963494
81,577,Constant,0.1,0.1,0.1,0.009999999999999995,0,0.47376270399945497
81,578,FarHighNarrow,0.2,0.15,0.1,0.009999999999999997,1,0.5169849150006485
81,579,FarLowNarrow,0.1,0.15,0.2,0.012589254117941664,1,0.7230938579996291
81,580,Constant,0.1,0.1,0.1,0.012589254117941666,0,0.48987693500021123
81,581,Constant,0.1,0.1,0.1,0.015848931924611127,1,0.445550758000536
81,582,FarLowWide,0.03,0.25,0.5,0.019952623149688785,0,0.49264999799925135
81,583,Constant,0.1,0.1,0.1,0.012589254117941666,0,99
81,584,FarLowNarrow,0.1,0.15,0.2,0.009999999999999993,1,0.4638601610004116
81,585,FarHighNarrow,0.2,0.15,0.1,0.007943282347242812,1,0.366197376000855
81,586,FarLowWide,0.03,0.25,0.5,0.025118864315095787,1,0.4372766779997619
81,587,FarLowNarrow,0.1,0.15,0.2,0.007943282347242809,1,0.4368754959996295
81,588,FarLowNarrow_null,0.1,0.15,0.2,0.009999999999999995,1,0.41082046199881006
81,589,Constant,0.1,0.1,0.1,0.015848931924611127,1,0.40621375200134935
81,590,ThreeLinesControl,0.0,0.0,0.1,0.015848931924611127,1,0.33284061800077325
81,591,FarHighWide_null,0.5,0.25,0.03,0.03981071705534971,1,0.3788123379999888
81,592,FarHighNarrow,0.2,0.15,0.1,0.006309573444801929,0,0.5742677840007673
81,593,FarLowNarrow,0.1,0.15,0.2,0.006309573444801927,0,99
81,594,FarHighNarrow,0.2,0.15,0.1,0.007943282347242812,1,0.4235469329996704
81,595,FarHighWide,0.5,0.25,0.03,0.007943282347242812,1,0.5574357009991218
81,596,FarLowWide,0.03,0.25,0.5,0.019952623149688785,1,0.41848591699999815
81,597,Constant,0.1,0.1,0.1,0.012589254117941666,0,99
81,598,Constant,0.1,0.1,0.1,0.015848931924611127,1,0.34992498099927616
81,599,FarHighWide,0.5,0.25,0.03,0.006309573444801929,0,0.42015985699981684
81,600,ThreeLinesControl,0.0,0.0,0.1,0.012589254117941666,0,0.6275953539989132
81,601,FarHighNarrow_null,0.2,0.15,0.1,0.02511886431509579,1,0.4646808929992403
81,602,FarHighWide,0.5,0.25,0.03,0.007943282347242812,0,0.4355296300000191
81,603,FarLowNarrow,0.1,0.15,0.2,0.007943282347242809,0,0.4181740530002571
81,604,FarHighNarrow,0.2,0.15,0.1,0.006309573444801929,1,0.5520470370011026
81,605,ThreeLinesControl,0.0,0.0,0.1,0.015848931924611127,1,0.5573498369994923
81,606,FarHighWide,0.5,0.25,0.03,0.009999999999999997,1,0.4753516149994539
81,607,Constant,0.1,0.1,0.1,0.012589254117941666,0,0.4176881500006857
81,608,FarHighWide,0.5,0.25,0.03,0.007943282347242812,1,0.3359577530009119
81,609,FarLowWide,0.03,0.25,0.5,0.015848931924611124,0,0.3260260830011248
81,610,FarLowWide,0.03,0.25,0.5,0.019952623149688785,1,0.6367255179993663
81,611,Constant,0.1,0.1,0.1,0.015848931924611127,1,0.36239309400116326
81,612,ThreeLinesControl,0.0,0.0,0.1,0.012589254117941666,1,0.48182841400011966
81,613,ThreeLinesControl,0.0,0.0,0.1,0.009999999999999995,0,0.34029566299977887
81,614,FarHighNarrow,0.2,0.15,0.1,0.00501187233627272,0,0.5543838780013175
81,615,FarHighWide,0.5,0.25,0.03,0.006309573444801929,1,0.4934759469997516
81,616,ThreeLinesControl,0.0,0.0,0.1,0.012589254117941666,1,0.5318949470001826
81,617,Constant,0.1,0.1,0.1,0.012589254117941666,0,0.4020455879999645
81,618,ThreeLinesControl,0.0,0.0,0.1,0.009999999999999995,0,0.4933587429986801
81,619,Constant,0.1,0.1,0.1,0.015848931924611127,1,0.5147593159999815
81,620,FarLowNarrow,0.1,0.15,0.2,0.009999999999999993,0,0.4815112930009491
81,621,FarHighWide,0.5,0.25,0.03,0.00501187233627272,0,0.47877332200005185
81,622,FarHighWide,0.5,0.25,0.03,0.006309573444801929,0,0.43745340800160193
81,623,FarHighWide_null,0.5,0.25,0.03,0.031622776601683784,1,0.4111449869997159
81,624,FarLowWide,0.03,0.25,0.5,0.015848931924611124,0,0.3931668819986953
81,625,FarHighWide,0.5,0.25,0.03,0.007943282347242812,0,0.5113908639996225
81,626,Constant,0.1,0.1,0.1,0.012589254117941666,0,0.5415654589996848
81,627,FarLowWide,0.03,0.25,0.5,0.019952623149688785,1,0.3878911079991667
81,628,ThreeLinesControl,0.0,0.0,0.1,0.012589254117941666,0,0.42716827699950954
81,629,FarLowNarrow,0.1,0.15,0.2,0.012589254117941664,1,0.48690995700053463
81,630,FarLowNarrow,0.1,0.15,0.2,0.009999999999999993,1,0.6211402980006824
81,631,Constant,0.1,0.1,0.1,0.015848931924611127,1,0.5300699540002825
81,632,FarHighNarrow,0.2,0.15,0.1,0.006309573444801929,0,0.4784691749991907
81,633,ThreeLinesControl,0.0,0.0,0.1,0.015848931924611127,1,0.5475052399997367
81,634,FarHighNarrow,0.2,0.15,0.1,0.007943282347242812,0,0.47081061599965324
81,635,FarHighNarrow,0.2,0.15,0.1,0.009999999999999997,1,0.5887032600003295
81,636,FarHighNarrow_null,0.2,0.15,0.1,0.01995262314968879,1,0.5151127260014619
81,637,Constant,0.1,0.1,0.1,0.012589254117941666,1,0.4172278490004828
81,638,FarLowWide,0.03,0.25,0.5,0.015848931924611124,1,0.41515188600169495
81,639,FarLowNarrow,0.1,0.15,0.2,0.007943282347242809,0,0.3574460830004682
81,640,FarLowNarrow,0.1,0.15,0.2,0.009999999999999993,0,99
81,641,Constant,0.1,0.1,0.1,0.009999999999999995,1,0.40071037499910744
81,642,ThreeLinesControl_null,0.0,0.0,0.1,0.05011872336272722,1,0.49509227399903466
81,643,FarLowWide,0.03,0.25,0.5,0.012589254117941663,0,0.5573768479989667
81,644,FarHighNarrow,0.2,0.15,0.1,0.007943282347242812,1,0.4126530930006993
81,645,FarHighNarrow,0.2,0.15,0.1,0.006309573444801929,0,99
81,646,FarLowWide,0.03,0.25,0.5,0.015848931924611124,1,0.5331659299990861
81,647,FarHighNarrow,0.2,0.15,0.1,0.007943282347242812,1,0.4595384339991142
81,648,FarLowWide,0.03,0.25,0.5,0.012589254117941663,0,0.40673134600001504
81,649,Constant,0.1,0.1,0.1,0.00794328234724281,1,0.4452504309992946
81,650,FarHighWide,0.5,0.25,0.03,0.009999999999999997,1,0.5871989099996426
81,651,FarHighWide,0.5,0.25,0.03,0.007943282347242812,1,0.37418271100068523
81,652,ThreeLinesControl,0.0,0.0,0.1,0.012589254117941666,0,0.3485198090002086
81,653,FarLowNarrow,0.1,0.15,0.2,0.012589254117941664,1,0.6664221430000907
81,654,ThreeLinesControl,0.0,0.0,0.1,0.015848931924611127,1,0.5366070620002574
81,655,FarLowWide,0.03,0.25,0.5,0.015848931924611124,1,0.39789632500105654
81,656,FarHighWide,0.5,0.25,0.03,0.006309573444801929,0,0.6356518079992384
81,657,FarLowWide,0.03,0.25,0.5,0.012589254117941663,0,0.4742184130009264
81,658,Constant,0.1,0.1,0.1,0.0063095734448019285,0,0.46416837299875624
81,659,FarHighNarrow,0.2,0.15,0.1,0.006309573444801929,0,0.5667501980005909
81,660,FarLowWide,0.03,0.25,0.5,0.015848931924611124,1,0.5098345639999025
81,661,FarHighWide,0.5,0.25,0.03,0.007943282347242812,1,0.7128274909991887
81,662,ThreeLinesControl,0.0,0.0,0.1,0.012589254117941666,0,0.45473382199998014
81,663,Constant,0.1,0.1,0.1,0.00794328234724281,0,0.43700667200027965
81,664,FarLowWide,0.03,0.25,0.5,0.012589254117941663,0,0.4801384410002356
81,665,FarHighNarrow,0.2,0.15,0.1,0.007943282347242812,0,0.5103495090006618
81,666,FarHighWide_null,0.5,0.25,0.03,0.02511886431509579,1,0.47659340199970757
81,667,FarHighNarrow,0.2,0.15,0.1,0.009999999999999997,0,0.36753436499930103
81,668,FarLowWide,0.03,0.25,0.5,0.015848931924611124,0,99
81,669,FarLowNarrow,0.1,0.15,0.2,0.009999999999999993,0,99
81,670,ThreeLinesControl,0.0,0.0,0.1,0.015848931924611127,1,0.3541577169999073
81,671,ThreeLinesControl,0.0,0.0,0.1,0.012589254117941666,1,0.3429705139988073
81,672,Constant,0.1,0.1,0.1,0.009999999999999995,1,0.42924754000159737
81,673,FarLowWide,0.03,0.25,0.5,0.019952623149688785,0,0.3634200079995935
81,674,FarHighWide,0.5,0.25,0.03,0.006309573444801929,0,0.41768153199882363
81,675,FarHighNarrow,0.2,0.15,0.1,0.012589254117941668,0,99
81,676,FarLowWide,0.03,0.25,0.5,0.025118864315095787,1,0.4391754279986344
81,677,FarLowNarrow,0.1,0.15,0.2,0.012589254117941664,1,0.33310137999978906
81,678,FarHighNarrow_null,0.2,0.15,0.1,0.015848931924611127,0,99
81,679,ThreeLinesControl,0.0,0.0,0.1,0.009999999999999995,0,99
81,680,Constant,0.1,0.1,0.1,0.00794328234724281,1,0.4416384180003661
81,681,FarLowWide,0.03,0.25,0.5,0.019952623149688785,1,0.47062328399988473
81,682,FarHighWide,0.5,0.25,0.03,0.007943282347242812,0,0.4285129620002408
81,683,FarLowWide,0.03,0.25,0.5,0.015848931924611124,1,0.5689366610004072
81,684,FarHighNarrow,0.2,0.15,0.1,0.01584893192461113,1,0.3990851050002675
81,685,ThreeLinesControl,0.0,0.0,0.1,0.012589254117941666,0,0.4292729919998237
81,686,FarHighWide,0.5,0.25,0.03,0.009999999999999997,0,0.4433634289998736
81,687,FarHighNarrow_null,0.2,0.15,0.1,0.01995262314968879,1,0.36857286099984776
81,688,FarHighWide_null,0.5,0.25,0.03,0.01995262314968879,1,0.4144145379996189
81,689,ThreeLinesControl,0.0,0.0,0.1,0.015848931924611127,0,0.41339255300044897
81,690,ThreeLinesControl,0.0,0.0,0.1,0.01995262314968879,1,0.3871600660004333
81,691,FarLowWide,0.03,0.25,0.5,0.012589254117941663,0,0.4894345140000951
81,692,FarHighNarrow,0.2,0.15,0.1,0.012589254117941668,1,0.5435294020007859
81,693,ThreeLinesControl,0.0,0.0,0.1,0.015848931924611127,0,0.43832145200030936
81,694,Constant,0.1,0.1,0.1,0.0063095734448019285,1,0.40044799899987993
81,695,ThreeLinesControl,0.0,0.0,0.1,0.01995262314968879,1,0.4468503719999717
81,696,ThreeLinesControl_null,0.0,0.0,0.1,0.03981071705534971,0,0.47733345099914004
81,697,FarHighNarrow,0.2,0.15,0.1,0.009999999999999997,1,0.43170817799909855
81,698,FarHighWide_null,0.5,0.25,0.03,0.015848931924611127,1,0.4941468730012275
81,699,FarHighWide,0.5,0.25,0.03,0.012589254117941668,0,0.44236276899937366
81,700,ThreeLinesControl,0.0,0.0,0.1,0.015848931924611127,1,0.5366450040000927
81,701,FarLowNarrow_null,0.1,0.15,0.2,0.00794328234724281,1,0.4065642149998894
81,702,FarHighNarrow,0.2,0.15,0.1,0.007943282347242812,1,0.46019236799838836
81,703,FarLowWide,0.03,0.25,0.5,0.015848931924611124,0,0.40191837400016084
81,704,FarLowNarrow,0.1,0.15,0.2,0.009999999999999993,1,0.38425051199919835
81,705,ThreeLinesControl,0.0,0.0,0.1,0.012589254117941666,0,0.45433297000090533
81,706,ThreeLinesControl,0.0,0.0,0.1,0.015848931924611127,1,0.5003691090005304
81,707,Constant,0.1,0.1,0.1,0.005011872336272719,0,0.48319479699966905
81,708,FarLowNarrow,0.1,0.15,0.2,0.007943282347242809,0,0.45675424599903636
81,709,FarLowWide,0.03,0.25,0.5,0.019952623149688785,0,0.4228788109994639
81,710,FarHighNarrow,0.2,0.15,0.1,0.006309573444801929,1,0.38610589200106915
81,711,ThreeLinesControl,0.0,0.0,0.1,0.012589254117941666,0,0.4080002090013295
81,712,Constant,0.1,0.1,0.1,0.0063095734448019285,0,0.5089400889992248
81,713,Constant,0.1,0.1,0.1,0.00794328234724281,0,99
81,714,FarHighNarrow,0.2,0.15,0.1,0.00501187233627272,0,0.510470887998963
81,715,Constant,0.1,0.1,0.1,0.009999999999999995,0,99
81,716,FarHighNarrow,0.2,0.15,0.1,0.006309573444801929,0,0.46492013199895155
81,717,FarHighWide,0.5,0.25,0.03,0.01584893192461113,1,0.5988984010000422
81,718,FarHighWide,0.5,0.25,0.03,0.012589254117941668,1,0.5892128020004748
81,719,Constant,0.1,0.1,0.1,0.012589254117941666,0,0.587170483000591
81,720,FarLowWide,0.03,0.25,0.5,0.025118864315095787,1,0.7590995150003437
81,721,ThreeLinesControl,0.0,0.0,0.1,0.015848931924611127,0,0.4360120029996324
81,722,FarHighWide_null,0.5,0.25,0.03,0.012589254117941666,1,0.5459359569995286
81,723,FarLowNarrow,0.1,0.15,0.2,0.009999999999999993,1,0.3912524970000959
81,724,FarHighWide_null,0.5,0.25,0.03,0.009999999999999995,0,0.44557185099984054
81,725,FarHighWide,0.5,0.25,0.03,0.009999999999999997,0,99
81,726,FarHighWide,0.5,0.25,0.03,0.012589254117941668,1,0.4483915370001341
81,727,Constant,0.1,0.1,0.1,0.015848931924611127,1,0.3909282570002688
81,728,ThreeLinesControl,0.0,0.0,0.1,0.01995262314968879,1,0.3662255520011968
81,729,FarLowWide,0.03,0.25,0.5,0.019952623149688785,0,0.4042370959996333
81,730,ThreeLinesControl,0.0,0.0,0.1,0.015848931924611127,1,0.5381212950014742
81,731,FarLowNarrow,0.1,0.15,0.2,0.007943282347242809,1,0.44746232100078487
81,732,Constant,0.1,0.1,0.1,0.012589254117941666,1,0.3897040189986001
81,733,FarLowNarrow,0.1,0.15,0.2,0.006309573444801927,0,0.3795279349997145
81,734,ThreeLinesControl,0.0,0.0,0.1,0.012589254117941666,0,0.3426954709993879
81,735,FarLowWide,0.03,0.25,0.5,0.025118864315095787,1,0.621311954999328
81,736,Constant,0.1,0.1,0.1,0.009999999999999995,0,0.35995287600053416
81,737,FarHighNarrow,0.2,0.15,0.1,0.007943282347242812,1,0.5584154899988789
81,738,FarHighWide,0.5,0.25,0.03,0.009999999999999997,1,0.4204040149998036
81,739,FarHighNarrow,0.2,0.15,0.1,0.006309573444801929,0,0.40028181999878143
81,740,FarLowWide,0.03,0.25,0.5,0.019952623149688785,1,0.4384138069999608
81,741,ThreeLinesControl,0.0,0.0,0.1,0.015848931924611127,1,0.3247217139996792
81,742,Constant,0.1,0.1,0.1,0.012589254117941666,1,0.37090663299932203
81,743,FarHighWide,0.5,0.25,0.03,0.007943282347242812,0,99
81,744,FarLowWide,0.03,0.25,0.5,0.015848931924611124,1,0.4714926180004113
81,745,Constant,0.1,0.1,0.1,0.009999999999999995,0,0.3972563750012341
81,746,FarHighWide,0.5,0.25,0.03,0.009999999999999997,1,0.5247399830004724
81,747,ThreeLinesControl,0.0,0.0,0.1,0.012589254117941666,1,0.3764832720007689
81,748,FarHighWide,0.5,0.25,0.03,0.007943282347242812,0,0.33504218500092975
81,749,ThreeLinesControl,0.0,0.0,0.1,0.009999999999999995,0,99
81,750,FarHighWide,0.5,0.25,0.03,0.009999999999999997,0,0.43249541300065175
81,751,ThreeLinesControl,0.0,0.0,0.1,0.012589254117941666,1,0.4863322750006773
81,752,FarHighNarrow,0.2,0.15,0.1,0.007943282347242812,0,0.6525462999998126
81,753,ThreeLinesControl,0.0,0.0,0.1,0.009999999999999995,0,0.5278098199996748
81,754,FarHighNarrow,0.2,0.15,0.1,0.009999999999999997,0,0.49393649299963727
81,755,Constant,0.1,0.1,0.1,0.012589254117941666,0,0.5936721819998638
81,756,FarLowNarrow,0.1,0.15,0.2,0.007943282347242809,0,0.42420548100017186
81,757,FarHighWide,0.5,0.25,0.03,0.012589254117941668,1,0.43874231100016914
81,758,ThreeLinesControl_null,0.0,0.0,0.1,0.05011872336272721,1,0.3484799990001193
81,759,FarHighNarrow,0.2,0.15,0.1,0.012589254117941668,0,99
81,760,FarHighWide,0.5,0.25,0.03,0.009999999999999997,1,0.5367178750002495
81,761,FarHighWide_null,0.5,0.25,0.03,0.012589254117941666,1,0.6948872789998859
81,762,FarHighNarrow,0.2,0.15,0.1,0.01584893192461113,1,0.43849201100056234
81,763,FarHighWide_null,0.5,0.25,0.03,0.009999999999999995,1,0.6102668459989218
81,764,ThreeLinesControl,0.0,0.0,0.1,0.012589254117941666,1,0.42419361300017044
81,765,Constant,0.1,0.1,0.1,0.015848931924611127,1,0.4783657129992207
81,766,ThreeLinesControl,0.0,0.0,0.1,0.009999999999999995,0,0.4015885619992332
81,767,ThreeLinesControl,0.0,0.0,0.1,0.012589254117941666,0,0.3667830510003114
81,768,Constant_null,0.1,0.1,0.1,0.03981071705534971,1,0.44485555899882456
81,769,FarHighNarrow,0.2,0.15,0.1,0.012589254117941668,1,0.5361498090005625
81,770,FarHighWide_null,0.5,0.25,0.03,0.00794328234724281,1,0.44632080500014126
81,771,FarHighNarrow,0.2,0.15,0.1,0.009999999999999997,0,99
81,772,FarHighWide,0.5,0.25,0.03,0.007943282347242812,0,99
81,773,FarLowWide,0.03,0.25,0.5,0.012589254117941663,0,0.5587757960001909
81,774,ThreeLinesControl_null,0.0,0.0,0.1,0.03981071705534971,1,0.3968252439990465
81,775,FarHighWide,0.5,0.25,0.03,0.009999999999999997,0,0.4510465200000908
81,776,FarLowWide,0.03,0.25,0.5,0.015848931924611124,1,0.4970234440006607
81,777,Constant,0.1,0.1,0.1,0.012589254117941666,0,0.66342711300058
81,778,FarLowWide,0.03,0.25,0.5,0.012589254117941663,0,99
81,779,FarLowWide,0.03,0.25,0.5,0.015848931924611124,1,0.468748350000169
81,780,FarHighWide,0.5,0.25,0.03,0.012589254117941668,0,0.46569908499986923
81,781,FarLowNarrow,0.1,0.15,0.2,0.009999999999999993,0,0.7746814349993656
81,782,ThreeLinesControl,0.0,0.0,0.1,0.015848931924611127,1,0.481927803999497
81,783,FarLowWide,0.03,0.25,0.5,0.012589254117941663,0,99
81,784,FarHighNarrow,0.2,0.15,0.1,0.012589254117941668,1,0.4463310539995291
81,785,FarHighNarrow,0.2,0.15,0.1,0.009999999999999997,0,0.5693585949993576
81,786,FarHighWide,0.5,0.25,0.03,0.01584893192461113,1,0.7276036290004413
81,787,FarLowWide,0.03,0.25,0.5,0.015848931924611124,0,0.3819022089992359
81,788,FarLowNarrow,0.1,0.15,0.2,0.012589254117941664,0,0.6909248910014867
81,789,FarHighWide,0.5,0.25,0.03,0.012589254117941668,0,0.6972459259995958
81,790,FarHighNarrow,0.2,0.15,0.1,0.012589254117941668,0,0.4391068210006779
81,791,ThreeLinesControl,0.0,0.0,0.1,0.012589254117941666,0,0.43742747199939913
81,792,Constant,0.1,0.1,0.1,0.015848931924611127,1,0.5305000279986416
81,793,FarLowWide,0.03,0.25,0.5,0.019952623149688785,0,0.3939451409987669
81,794,FarLowNarrow,0.1,0.15,0.2,0.015848931924611127,0,99
81,795,ThreeLinesControl,0.0,0.0,0.1,0.015848931924611127,0,0.43118307199983974
81,796,Constant,0.1,0.1,0.1,0.012589254117941666,0,99
81,797,ThreeLinesControl_null,0.0,0.0,0.1,0.031622776601683784,1,0.3532809799999086
81,798,ThreeLinesControl,0.0,0.0,0.1,0.01995262314968879,1,0.47121799900014594
81,799,FarLowWide,0.03,0.25,0.5,0.025118864315095787,1,0.3546275120006612
81,800,FarHighNarrow,0.2,0.15,0.1,0.01584893192461113,0,99
81,801,FarHighWide,0.5,0.25,0.03,0.01584893192461113,0,0.47498183800053084
81,802,FarHighWide,0.5,0.25,0.03,0.019952623149688792,0,0.4406844679997448
81,803,FarLowWide,0.03,0.25,0.5,0.019952623149688785,0,0.4311216099995363
81,804,Constant_null,0.1,0.1,0.1,0.031622776601683784,1,0.7171662010005093
81,805,FarLowWide,0.03,0.25,0.5,0.025118864315095787,0,0.44337674700000207
81,806,ThreeLinesControl,0.0,0.0,0.1,0.015848931924611127,1,0.4244333419992472
81,807,FarLowNarrow,0.1,0.15,0.2,0.01995262314968879,1,0.5266824730006192
81,808,ThreeLinesControl_null,0.0,0.0,0.1,0.02511886431509579,0,99
81,809,FarHighWide,0.5,0.25,0.03,0.025118864315095798,0,0.48317766599939205
81,810,FarLowNarrow_null,0.1,0.15,0.2,0.0063095734448019285,1,0.44257077099973685
81,811,FarHighNarrow,0.2,0.15,0.1,0.019952623149688792,1,0.4324621810010285
81,812,Constant,0.1,0.1,0.1,0.015848931924611127,0,99
81,813,ThreeLinesControl,0.0,0.0,0.1,0.012589254117941666,0,0.4026324349997594
81,814,FarLowWide,0.03,0.25,0.5,0.03162277660168378,1,0.3277146290001838
81,815,ThreeLinesControl_null,0.0,0.0,0.1,0.031622776601683784,1,0.40263569300077506
81,816,FarHighWide_null,0.5,0.25,0.03,0.0063095734448019285,1,0.44924488200013
81,817,FarLowWide_null,0.03,0.25,0.5,0.06309573444801932,1,0.34310067200021876
81,818,FarHighNarrow,0.2,0.15,0.1,0.01584893192461113,1,0.4985157450009865
81,819,FarHighNarrow,0.2,0.15,0.1,0.012589254117941668,0,0.5923421709994727
81,820,ThreeLinesControl,0.0,0.0,0.1,0.015848931924611127,0,0.5666731709989108
81,821,FarHighNarrow,0.2,0.15,0.1,0.01584893192461113,1,0.3556721300010395
81,822,FarHighNarrow,0.2,0.15,0.1,0.012589254117941668,1,0.48177662399939436
81,823,FarLowWide,0.03,0.25,0.5,0.025118864315095787,1,0.42398924799999804
81,824,ThreeLinesControl,0.0,0.0,0.1,0.01995262314968879,1,0.4060774350000429
81,825,FarHighWide,0.5,0.25,0.03,0.03162277660168379,1,0.4125030760005757
81,826,FarHighWide,0.5,0.25,0.03,0.025118864315095798,1,0.40278208699965035
81,827,FarHighNarrow,0.2,0.15,0.1,0.009999999999999997,0,0.41794872200080135
81,828,FarHighWide,0.5,0.25,0.03,0.019952623149688792,0,0.4162309860003006
81,829,ThreeLinesControl,0.0,0.0,0.1,0.015848931924611127,0,0.45203680000122404
81,830,FarLowWide_null,0.03,0.25,0.5,0.05011872336272722,1,0.35415324000132387
81,831,Constant,0.1,0.1,0.1,0.01995262314968879,1,0.38939616099924024
81,832,FarLowNarrow,0.1,0.15,0.2,0.015848931924611127,0,0.40345108499968774
81,833,Constant,0.1,0.1,0.1,0.015848931924611127,1,0.4565830840001581
81,834,Constant,0.1,0.1,0.1,0.012589254117941666,0,0.6602045310009999
81,835,Constant_null,0.1,0.1,0.1,0.02511886431509579,1,0.40193217100022594
81,836,FarHighNarrow,0.2,0.15,0.1,0.012589254117941668,1,0.5437141570000676
81,837,Constant,0.1,0.1,0.1,0.015848931924611127,1,0.4462853169989103
81,838,FarLowNarrow,0.1,0.15,0.2,0.01995262314968879,1,0.32421851599974616
81,839,FarLowNarrow,0.1,0.15,0.2,0.015848931924611127,1,0.41855836099966837
81,840,FarLowWide,0.03,0.25,0.5,0.019952623149688785,0,0.6698926389999542
81,841,ThreeLinesControl,0.0,0.0,0.1,0.01995262314968879,0,0.4333364789999905
81,842,ThreeLinesControl,0.0,0.0,0.1,0.025118864315095794,0,99
81,843,FarLowNarrow,0.1,0.15,0.2,0.012589254117941666,0,0.3894935059997806
81,844,FarHighNarrow,0.2,0.15,0.1,0.009999999999999997,0,0.36275536399989505
81,845,FarLowWide,0.03,0.25,0.5,0.025118864315095787,1,0.4486422660011158
81,846,FarLowWide,0.03,0.25,0.5,0.019952623149688785,0,99
81,847,FarHighNarrow,0.2,0.15,0.1,0.012589254117941668,1,0.4129184899993561
81,848,FarLowWide,0.03,0.25,0.5,0.025118864315095787,1,0.4831569159996434
81,849,FarHighWide,0.5,0.25,0.03,0.025118864315095798,1,0.39382027799911157
81,850,FarLowWide,0.03,0.25,0.5,0.019952623149688785,0,0.4007443489990692
81,851,Constant,0.1,0.1,0.1,0.012589254117941666,1,0.39092228099980275
81,852,ThreeLinesControl,0.0,0.0,0.1,0.031622776601683784,1,0.3217476669997268
81,853,FarLowNarrow,0.1,0.15,0.2,0.015848931924611127,1,0.39996614000119735
81,854,FarLowNarrow,0.1,0.15,0.2,0.012589254117941666,1,0.46223122799892735
81,855,FarLowNarrow,0.1,0.15,0.2,0.009999999999999995,1,0.5932311710002978
81,856,Constant,0.1,0.1,0.1,0.009999999999999995,0,0.5434841689984751
81,857,FarLowNarrow_null,0.1,0.15,0.2,0.005011872336272719,1,0.3705945920009981
81,858,FarLowWide,0.03,0.25,0.5,0.025118864315095787,1,0.45643934899999294
81,859,FarLowWide,0.03,0.25,0.5,0.019952623149688785,1,0.3828628179999214
81,860,Constant,0.1,0.1,0.1,0.012589254117941666,1,0.5809889040010603
81,861,FarHighNarrow,0.2,0.15,0.1,0.009999999999999997,1,0.4751014590001432
81,862,ThreeLinesControl,0.0,0.0,0.1,0.02511886431509579,1,0.3693792880003457
81,863,FarLowWide,0.03,0.25,0.5,0.015848931924611124,1,0.44629681700098445
81,864,FarLowWide,0.03,0.25,0.5,0.012589254117941663,0,0.3803105949991732
81,865,FarHighWide,0.5,0.25,0.03,0.019952623149688792,1,0.5626098029988498
81,866,FarHighNarrow,0.2,0.15,0.1,0.007943282347242812,0,0.42491948300084914
81,867,FarHighNarrow,0.2,0.15,0.1,0.009999999999999997,1,0.39087720599854947
81,868,Constant,0.1,0.1,0.1,0.009999999999999995,0,0.3789805790001992
81,869,Constant,0.1,0.1,0.1,0.012589254117941666,0,0.44134612000016205
81,870,ThreeLinesControl,0.0,0.0,0.1,0.01995262314968879,0,0.33532332700087863
81,871,ThreeLinesControl,0.0,0.0,0.1,0.025118864315095794,1,0.5227777139989485
81,872,FarLowWide,0.03,0.25,0.5,0.015848931924611124,0,0.32878528900073434
81,873,ThreeLinesControl,0.0,0.0,0.1,0.01995262314968879,0,0.39771065400054795
81,874,FarLowWide,0.03,0.25,0.5,0.019952623149688785,0,0.4419858599994768
81,875,FarLowWide_null,0.03,0.25,0.5,0.03981071705534971,1,0.31987337400096294
81,876,FarHighWide,0.5,0.25,0.03,0.01584893192461113,1,0.3181933570012916
81,877,FarHighNarrow,0.2,0.15,0.1,0.007943282347242812,1,0.34058949000063876
81,878,FarLowNarrow,0.1,0.15,0.2,0.00794328234724281,0,0.40211773599912704
81,879,FarLowWide,0.03,0.25,0.5,0.025118864315095787,1,0.3532909829991695
81,880,Constant,0.1,0.1,0.1,0.015848931924611127,0,99
81,881,ThreeLinesControl,0.0,0.0,0.1,0.025118864315095794,1,0.3012293760002649
81,882,ThreeLinesControl,0.0,0.0,0.1,0.01995262314968879,1,0.35402591900128755
81,883,FarHighWide,0.5,0.25,0.03,0.012589254117941668,0,0.31443984500037914
81,884,FarLowNarrow,0.1,0.15,0.2,0.009999999999999995,1,0.5128784730004554
81,885,FarHighNarrow,0.2,0.15,0.1,0.006309573444801929,0,0.3955719850000605
81,886,FarHighWide,0.5,0.25,0.03,0.01584893192461113,1,0.6339338010002393
81,887,FarHighWide,0.5,0.25,0.03,0.012589254117941668,0,0.4042081000006874
81,888,ThreeLinesControl,0.0,0.0,0.1,0.015848931924611127,1,0.4591112420002901
81,889,ThreeLinesControl,0.0,0.0,0.1,0.012589254117941666,0,0.36818872399999236
81,890,Constant,0.1,0.1,0.1,0.01995262314968879,0,0.7654656899994734
81,891,FarHighWide,0.5,0.25,0.03,0.01584893192461113,0,99
81,892,Constant,0.1,0.1,0.1,0.025118864315095794,1,0.3683608760002244
81,893,FarLowWide,0.03,0.25,0.5,0.019952623149688785,1,0.366838160000043
81,894,FarLowWide,0.03,0.25,0.5,0.015848931924611124,1,0.33335093000096094
81,895,FarLowWide,0.03,0.25,0.5,0.012589254117941663,0,0.3712105459999293
81,896,ThreeLinesControl,0.0,0.0,0.1,0.015848931924611127,0,0.4974523170003522
81,897,Constant,0.1,0.1,0.1,0.01995262314968879,0,99
81,898,FarLowNarrow,0.1,0.15,0.2,0.00794328234724281,0,0.40293357399968954
81,899,FarLowNarrow,0.1,0.15,0.2,0.009999999999999995,1,0.584789983000519
81,900,Constant,0.1,0.1,0.1,0.025118864315095794,1,0.35923062800065964
81,901,ThreeLinesControl,0.0,0.0,0.1,0.01995262314968879,1,0.2910770380003669
81,902,Constant,0.1,0.1,0.1,0.01995262314968879,0,99
81,903,ThreeLinesControl_null,0.0,0.0,0.1,0.02511886431509579,1,0.3403450919995521
81,904,FarHighNarrow,0.2,0.15,0.1,0.007943282347242812,0,99
81,905,ThreeLinesControl,0.0,0.0,0.1,0.015848931924611127,1,0.48758643900146126
81,906,Constant,0.1,0.1,0.1,0.025118864315095794,1,0.4038514940002642
81,907,FarLowWide,0.03,0.25,0.5,0.015848931924611124,1,0.3699037580008735
81,908,FarLowWide_null,0.03,0.25,0.5,0.031622776601683784,1,0.39953216499998234
81,909,FarHighWide,0.5,0.25,0.03,0.019952623149688792,1,0.44606121399920085
81,910,FarLowWide,0.03,0.25,0.5,0.012589254117941663,0,0.37243069900068804
81,911,FarHighWide,0.5,0.25,0.03,0.01584893192461113,1,0.46672715300155687
81,912,Constant,0.1,0.1,0.1,0.01995262314968879,1,0.5048703430002206
81,913,FarHighNarrow,0.2,0.15,0.1,0.009999999999999997,1,0.3347957279984257
81,914,ThreeLinesControl,0.0,0.0,0.1,0.012589254117941666,0,0.35752997000054165
81,915,ThreeLinesControl,0.0,0.0,0.1,0.015848931924611127,0,99
81,916,FarLowNarrow,0.1,0.15,0.2,0.00794328234724281,1,0.522779389999414
81,917,FarLowWide,0.03,0.25,0.5,0.015848931924611124,0,0.34925504099919635
81,918,FarLowWide,0.03,0.25,0.5,0.019952623149688785,0,0.4506639819992415
81,919,FarLowWide,0.03,0.25,0.5,0.025118864315095787,1,0.32844881399978476
81,920,FarHighNarrow,0.2,0.15,0.1,0.007943282347242812,0,0.603811166000014
81,921,FarHighWide,0.5,0.25,0.03,0.012589254117941668,1,0.4100373640012549
81,922,FarLowNarrow,0.1,0.15,0.2,0.0063095734448019285,0,0.32727648800027964
81,923,Constant_null,0.1,0.1,0.1,0.01995262314968879,0,0.6453618859995913
81,924,FarLowNarrow,0.1,0.15,0.2,0.00794328234724281,0,99
81,925,FarHighWide,0.5,0.25,0.03,0.009999999999999997,0,0.5044690039994748
81,926,FarLowNarrow,0.1,0.15,0.2,0.009999999999999995,0,0.40653403400028765
81,927,FarLowWide,0.03,0.25,0.5,0.019952623149688785,0,0.4048606119995384
81,928,FarHighNarrow,0.2,0.15,0.1,0.009999999999999997,1,0.4033951760011405
81,929,FarHighWide,0.5,0.25,0.03,0.012589254117941668,0,0.4023102190003556
81,930,FarHighWide,0.5,0.25,0.03,0.01584893192461113,1,0.48188273000050685
81,931,FarLowNarrow,0.1,0.15,0.2,0.012589254117941666,0,0.4282330389996787
81,932,FarHighWide,0.5,0.25,0.03,0.012589254117941668,1,0.418327406001481
81,933,Constant,0.1,0.1,0.1,0.015848931924611127,1,0.4628603919991292
81,934,Constant,0.1,0.1,0.1,0.012589254117941666,0,0.4531072680001671
81,935,FarLowNarrow,0.1,0.15,0.2,0.015848931924611127,1,0.48293406199991296
81,936,Constant,0.1,0.1,0.1,0.015848931924611127,0,99
81,937,FarLowNarrow_null,0.1,0.15,0.2,0.00398107170553497,1,0.3885163109989662
81,938,FarLowWide,0.03,0.25,0.5,0.025118864315095787,1,0.43336348199954955
81,939,FarLowWide,0.03,0.25,0.5,0.019952623149688785,0,0.4862398300010682
81,940,FarHighNarrow,0.2,0.15,0.1,0.007943282347242812,1,0.7249321480012441
81,941,FarHighNarrow,0.2,0.15,0.1,0.006309573444801929,0,0.4270215449996613
81,942,FarHighNarrow,0.2,0.15,0.1,0.007943282347242812,0,0.6010337190000428
81,943,ThreeLinesControl_null,0.0,0.0,0.1,0.01995262314968879,1,0.5354459250011132
81,944,ThreeLinesControl,0.0,0.0,0.1,0.01995262314968879,0,0.41509730799953104
81,945,FarHighNarrow,0.2,0.15,0.1,0.009999999999999997,0,0.46860621599989827
81,946,FarLowNarrow,0.1,0.15,0.2,0.012589254117941666,0,0.45078268599900184
81,947,FarHighWide,0.5,0.25,0.03,0.009999999999999997,0,99
81,948,ThreeLinesControl,0.0,0.0,0.1,0.025118864315095794,1,0.3408210270008567
81,949,FarHighWide,0.5,0.25,0.03,0.012589254117941668,1,0.5232189870002912
81,950,Constant,0.1,0.1,0.1,0.01995262314968879,1,0.44638520599983167
81,951,ThreeLinesControl,0.0,0.0,0.1,0.01995262314968879,1,0.4126893659995403
81,952,FarLowWide,0.03,0.25,0.5,0.025118864315095787,1,0.4074755589990673
81,953,FarHighNarrow,0.2,0.15,0.1,0.012589254117941668,1,0.3496178309997049
81,954,Constant,0.1,0.1,0.1,0.015848931924611127,1,0.4200131309989956
81,955,Constant,0.1,0.1,0.1,0.012589254117941666,0,0.4711353089987824
81,956,FarLowWide,0.03,0.25,0.5,0.019952623149688785,0,0.49344376900080533
81,957,FarLowWide,0.03,0.25,0.5,0.025118864315095787,1,0.6035081400004856
81,958,FarLowWide,0.03,0.25,0.5,0.019952623149688785,1,0.8965309929990326
81,959,ThreeLinesControl,0.0,0.0,0.1,0.015848931924611127,1,0.46236626999962027
81,960,ThreeLinesControl,0.0,0.0,0.1,0.012589254117941666,0,0.5613051700001961
81,961,FarLowWide,0.03,0.25,0.5,0.015848931924611124,0,99
81,962,Constant,0.1,0.1,0.1,0.015848931924611127,0,99
81,963,ThreeLinesControl,0.0,0.0,0.1,0.015848931924611127,0,0.3556570559994725
81,964,FarLowNarrow_null,0.1,0.15,0.2,0.0031622776601683772,0,0.4084822479999275
81,965,FarLowWide_null,0.03,0.25,0.5,0.02511886431509579,1,0.3905571260002034
81,966,FarLowWide,0.03,0.25,0.5,0.019952623149688785,0,0.3330862349994277
81,967,ThreeLinesControl,0.0,0.0,0.1,0.01995262314968879,1,0.5232922030008922
81,968,ThreeLinesControl_null,0.0,0.0,0.1,0.015848931924611127,1,0.3615744220005581
81,969,FarHighNarrow,0.2,0.15,0.1,0.009999999999999997,1,0.416565591998733
81,970,Constant,0.1,0.1,0.1,0.01995262314968879,1,0.32668054799978563
81,971,FarLowWide,0.03,0.25,0.5,0.025118864315095787,1,0.31478564999997616
81,972,ThreeLinesControl,0.0,0.0,0.1,0.015848931924611127,1,0.3930340789993352
81,973,FarLowNarrow,0.1,0.15,0.2,0.015848931924611127,1,0.3162149189993215
81,974,FarLowWide,0.03,0.25,0.5,0.019952623149688785,1,0.41019374600000447
81,975,Constant_null,0.1,0.1,0.1,0.025118864315095794,1,0.49652128200068546
81,976,FarHighNarrow,0.2,0.15,0.1,0.007943282347242812,1,0.3234749869989173
81,977,ThreeLinesControl_null,0.0,0.0,0.1,0.012589254117941666,1,0.37764822200006165
81,978,FarHighWide,0.5,0.25,0.03,0.009999999999999997,0,0.5586988380000548
81,979,FarLowNarrow_null,0.1,0.15,0.2,0.00398107170553497,1,0.47699813500003074
81,980,FarLowWide,0.03,0.25,0.5,0.015848931924611124,0,0.4909930939993501
81,981,ThreeLinesControl,0.0,0.0,0.1,0.012589254117941666,0,0.465456586000073
81,982,FarLowWide,0.03,0.25,0.5,0.019952623149688785,0,0.5593188729999383
81,983,FarLowWide,0.03,0.25,0.5,0.025118864315095787,0,99
81,984,FarHighNarrow,0.2,0.15,0.1,0.006309573444801929,0,99
81,985,ThreeLinesControl,0.0,0.0,0.1,0.015848931924611127,1,0.49012856099943747
81,986,FarLowWide,0.03,0.25,0.5,0.03162277660168378,1,0.3214555829999881
81,987,FarLowNarrow,0.1,0.15,0.2,0.012589254117941666,0,99
81,988,FarHighWide,0.5,0.25,0.03,0.012589254117941668,0,0.6583028540007945
81,989,FarLowWide,0.03,0.25,0.5,0.025118864315095787,0,0.42940398500104493
81,990,FarHighNarrow,0.2,0.15,0.1,0.007943282347242812,0,0.6836171510003624
81,991,FarHighNarrow,0.2,0.15,0.1,0.009999999999999997,0,0.48974976899989997
81,992,ThreeLinesControl_null,0.0,0.0,0.1,0.009999999999999995,1,0.42134379599883687
81,993,FarLowWide_null,0.03,0.25,0.5,0.01995262314968879,1,0.44312854900090315
81,994,ThreeLinesControl,0.0,0.0,0.1,0.012589254117941666,0,0.43320108400075696
81,995,FarHighNarrow,0.2,0.15,0.1,0.012589254117941668,0,99
81,996,FarLowWide,0.03,0.25,0.5,0.03162277660168378,1,0.2933428140004253
81,997,FarHighWide,0.5,0.25,0.03,0.01584893192461113,1,0.45881542900133354
81,998,FarHighNarrow,0.2,0.15,0.1,0.01584893192461113,0,0.42533290199935436
81,999,FarLowNarrow,0.1,0.15,0.2,0.015848931924611127,1,0.5907858339996892
81,1000,ThreeLinesControl,0.0,0.0,0.1,0.015848931924611127,1,0.4535757209996518
81,1001,FarLowNarrow,0.1,0.15,0.2,0.012589254117941666,0,99
81,1002,Constant,0.1,0.1,0.1,0.015848931924611127,1,0.3946506699994643
81,1003,FarLowNarrow,0.1,0.15,0.2,0.015848931924611127,1,0.358622325999022
81,1004,Constant,0.1,0.1,0.1,0.012589254117941666,0,0.41998898000019835
81,1005,ThreeLinesControl,0.0,0.0,0.1,0.012589254117941666,0,0.42690116399899125
81,1006,FarLowNarrow,0.1,0.15,0.2,0.012589254117941666,0,0.42204177700114087
81,1007,FarLowNarrow,0.1,0.15,0.2,0.015848931924611127,1,0.45229104999998526
81,1008,Constant,0.1,0.1,0.1,0.015848931924611127,0,99
81,1009,ThreeLinesControl,0.0,0.0,0.1,0.015848931924611127,0,99
81,1010,FarLowWide,0.03,0.25,0.5,0.025118864315095787,1,0.29168683900024917
81,1011,FarLowNarrow,0.1,0.15,0.2,0.012589254117941666,1,0.3287384680006653
81,1012,FarHighNarrow,0.2,0.15,0.1,0.019952623149688792,1,0.3338544289999845
81,1013,FarHighWide,0.5,0.25,0.03,0.012589254117941668,0,0.5478311349997966
81,1014,FarHighWide,0.5,0.25,0.03,0.01584893192461113,0,0.5138612080008897
81,1015,ThreeLinesControl,0.0,0.0,0.1,0.01995262314968879,0,0.44043320099990524
81,1016,Constant,0.1,0.1,0.1,0.01995262314968879,0,99
81,1017,FarLowWide,0.03,0.25,0.5,0.019952623149688785,1,0.70937665099882
81,1018,FarLowWide,0.03,0.25,0.5,0.015848931924611124,0,99
81,1019,ThreeLinesControl,0.0,0.0,0.1,0.025118864315095794,1,0.39100534500175854
81,1020,Constant,0.1,0.1,0.1,0.025118864315095794,1,0.3733529090004595
81,1021,Constant,0.1,0.1,0.1,0.01995262314968879,1,0.3712629499987088
81,1022,FarLowNarrow,0.1,0.15,0.2,0.009999999999999995,1,0.37436939899998833
81,1023,FarLowNarrow,0.1,0.15,0.2,0.00794328234724281,0,99
81,1024,FarHighNarrow,0.2,0.15,0.1,0.01584893192461113,0,99
81,1025,FarLowNarrow_null,0.1,0.15,0.2,0.0031622776601683772,1,0.5980763059997116
81,1026,FarLowNarrow_null,0.1,0.15,0.2,0.002511886431509578,1,0.40392849700037914
81,1027,ThreeLinesControl,0.0,0.0,0.1,0.01995262314968879,1,0.45815057499930845
81,1028,Constant_null,0.1,0.1,0.1,0.01995262314968879,1,0.5350554590004322
81,1029,ThreeLinesControl,0.0,0.0,0.1,0.015848931924611127,1,0.3492013800005225
81,1030,FarLowNarrow,0.1,0.15,0.2,0.009999999999999995,0,0.4115663510001468
81,1031,FarLowWide,0.03,0.25,0.5,0.019952623149688785,0,99
81,1032,FarLowNarrow,0.1,0.15,0.2,0.012589254117941666,0,0.42408500899909995
81,1033,FarHighWide,0.5,0.25,0.03,0.019952623149688792,0,99
81,1034,Constant,0.1,0.1,0.1,0.015848931924611127,0,99
81,1035,FarLowWide,0.03,0.25,0.5,0.025118864315095787,1,0.3398832080001739
81,1036,Constant,0.1,0.1,0.1,0.01995262314968879,0,99
81,1037,FarHighWide,0.5,0.25,0.03,0.025118864315095798,1,0.35699141300028714
81,1038,Constant,0.1,0.1,0.1,0.025118864315095794,1,0.3836624550003762
81,1039,FarHighWide,0.5,0.25,0.03,0.019952623149688792,0,99
81,1040,FarLowWide_null,0.03,0.25,0.5,0.015848931924611127,1,0.44426319600097486
81,1041,Constant,0.1,0.1,0.1,0.01995262314968879,0,99
81,1042,FarHighWide,0.5,0.25,0.03,0.025118864315095798,1,0.4293903849993512
81,1043,FarHighWide,0.5,0.25,0.03,0.019952623149688792,1,0.5554559219999646
81,1044,FarHighNarrow,0.2,0.15,0.1,0.019952623149688792,1,0.40971850700043433
81,1045,ThreeLinesControl,0.0,0.0,0.1,0.012589254117941666,1,0.3677347809989442
81,1046,FarHighNarrow,0.2,0.15,0.1,0.01584893192461113,1,0.45411959900047805
81,1047,Constant_null,0.1,0.1,0.1,0.015848931924611127,1,0.46716426799866895
81,1048,FarHighWide,0.5,0.25,0.03,0.01584893192461113,1,0.3372662470010255
81,1049,FarLowNarrow,0.1,0.15,0.2,0.015848931924611127,0,99
81,1050,FarLowNarrow,0.1,0.15,0.2,0.01995262314968879,0,99
81,1051,ThreeLinesControl,0.0,0.0,0.1,0.009999999999999995,0,0.4447964810005942
81,1052,FarHighWide,0.5,0.25,0.03,0.012589254117941668,0,0.6396061100003863
81,1053,ThreeLinesControl,0.0,0.0,0.1,0.012589254117941666,1,0.4140798629996425
81,1054,Constant,0.1,0.1,0.1,0.025118864315095794,1,0.3292657149995648
81,1055,FarLowNarrow,0.1,0.15,0.2,0.025118864315095794,1,0.31144813900027657
81,1056,FarHighWide,0.5,0.25,0.03,0.01584893192461113,1,0.41327285100123845
81,1057,Constant,0.1,0.1,0.1,0.01995262314968879,1,0.3207038979999197
81,1058,ThreeLinesControl,0.0,0.0,0.1,0.009999999999999995,0,0.3746830010004487
81,1059,Constant,0.1,0.1,0.1,0.015848931924611127,0,0.4048667329989257
81,1060,FarHighNarrow,0.2,0.15,0.1,0.012589254117941668,1,0.3470934839988331
81,1061,FarHighWide,0.5,0.25,0.03,0.012589254117941668,0,0.45725937300085207
81,1062,ThreeLinesControl,0.0,0.0,0.1,0.012589254117941666,0,0.5513603809995402
81,1063,FarLowNarrow,0.1,0.15,0.2,0.01995262314968879,0,99
81,1064,FarLowNarrow,0.1,0.15,0.2,0.025118864315095794,1,0.4300261860007595
81,1065,ThreeLinesControl,0.0,0.0,0.1,0.015848931924611127,1,0.3463197519995447
81,1066,FarLowWide,0.03,0.25,0.5,0.019952623149688785,0,0.4883131370006595
81,1067,Constant_null,0.1,0.1,0.1,0.012589254117941666,1,0.46330841400049394
81,1068,FarLowNarrow,0.1,0.15,0.2,0.01995262314968879,1,0.3622913810013415
81,1069,Constant_null,0.1,0.1,0.1,0.009999999999999995,1,0.5912700190001487
81,1070,FarHighWide,0.5,0.25,0.03,0.01584893192461113,1,0.31757350000043516
81,1071,Constant_null,0.1,0.1,0.1,0.00794328234724281,1,0.42463242600024387
81,1072,ThreeLinesControl,0.0,0.0,0.1,0.012589254117941666,1,0.4546884359988326
81,1073,Constant,0.1,0.1,0.1,0.01995262314968879,1,0.4350639910007885
81,1074,FarLowWide,0.03,0.25,0.5,0.025118864315095787,1,0.40107088100012334
81,1075,FarHighWide,0.5,0.25,0.03,0.012589254117941668,0,0.42324882699904265
81,1076,Constant,0.1,0.1,0.1,0.015848931924611127,1,0.44451141099852975
81,1077,Constant_null,0.1,0.1,0.1,0.0063095734448019285,1,0.41147437499967054
81,1078,FarHighNarrow,0.2,0.15,0.1,0.009999999999999997,1,0.6245297940004093
81,1079,FarLowWide,0.03,0.25,0.5,0.019952623149688785,0,0.3589408549996733
81,1080,ThreeLinesControl,0.0,0.0,0.1,0.009999999999999995,0,0.6472434480001539
81,1081,FarLowWide_null,0.03,0.25,0.5,0.012589254117941666,1,0.3403982610016101
81,1082,FarLowWide,0.03,0.25,0.5,0.025118864315095787,0,0.3466203850002785
81,1083,FarHighWide,0.5,0.25,0.03,0.01584893192461113,1,0.3518385360002867
81,1084,Constant,0.1,0.1,0.1,0.012589254117941666,0,0.4137554139997519
81,1085,FarLowWide_null,0.03,0.25,0.5,0.009999999999999995,1,0.3961663249992853
81,1086,Constant,0.1,0.1,0.1,0.015848931924611127,1,0.41022419500040996
81,1087,FarHighNarrow,0.2,0.15,0.1,0.007943282347242812,0,0.34567408700058877
81,1088,FarHighNarrow,0.2,0.15,0.1,0.009999999999999997,0,0.3429388069998822
81,1089,FarHighWide,0.5,0.25,0.03,0.012589254117941668,0,0.4682945139993535
81,1090,FarLowNarrow,0.1,0.15,0.2,0.015848931924611127,1,0.570851856000445
81,1091,FarHighNarrow,0.2,0.15,0.1,0.012589254117941668,1,0.3208926409988635
81,1092,FarHighNarrow,0.2,0.15,0.1,0.009999999999999997,0,0.38717314600035024
81,1093,FarLowWide,0.03,0.25,0.5,0.03162277660168378,1,0.305290682001214
81,1094,FarHighNarrow,0.2,0.15,0.1,0.012589254117941668,0,0.3515521480003372
81,1095,FarLowWide_null,0.03,0.25,0.5,0.00794328234724281,0,0.6588293599997996
81,1096,ThreeLinesControl,0.0,0.0,0.1,0.012589254117941666,0,0.3927795849995164
81,1097,Constant,0.1,0.1,0.1,0.012589254117941666,0,0.36579084000004514
81,1098,FarLowNarrow,0.1,0.15,0.2,0.012589254117941666,0,99
81,1099,FarHighNarrow,0.2,0.15,0.1,0.01584893192461113,1,0.47430309599985776
81,1100,Constant,0.1,0.1,0.1,0.015848931924611127,0,0.5271072919986182
81,1101,FarHighWide,0.5,0.25,0.03,0.01584893192461113,0,99
81,1102,FarLowWide_null,0.03,0.25,0.5,0.009999999999999995,1,0.3716329979997681
81,1103,FarLowNarrow,0.1,0.15,0.2,0.015848931924611127,0,0.39387602799979504
81,1104,FarLowWide,0.03,0.25,0.5,0.025118864315095787,0,99
81,1105,FarHighWide,0.5,0.25,0.03,0.019952623149688792,1,0.5877766480007267
81,1106,FarLowWide,0.03,0.25,0.5,0.03162277660168378,1,0.3060422819999076
81,1107,FarLowWide,0.03,0.25,0.5,0.025118864315095787,1,0.34460781199959456
81,1108,FarHighNarrow,0.2,0.15,0.1,0.012589254117941668,0,0.3876030930005072
81,1109,FarHighNarrow,0.2,0.15,0.1,0.01584893192461113,1,0.4255238929999905
81,1110,Constant,0.1,0.1,0.1,0.01995262314968879,0,99
81,1111,FarLowWide,0.03,0.25,0.5,0.019952623149688785,0,0.32308011900022393
81,1112,Constant,0.1,0.1,0.1,0.025118864315095794,1,0.3531223369991494
81,1113,FarLowWide,0.03,0.25,0.5,0.025118864315095787,1,0.4060634659999778
81,1114,FarLowWide_null,0.03,0.25,0.5,0.00794328234724281,1,0.3473270760005107
81,1115,FarLowWide,0.03,0.25,0.5,0.019952623149688785,1,0.43368241200005286
81,1116,FarLowNarrow,0.1,0.15,0.2,0.01995262314968879,0,0.4315355039998394
81,1117,FarLowWide,0.03,0.25,0.5,0.015848931924611124,0,0.42201767199912865
81,1118,FarLowWide_null,0.03,0.25,0.5,0.0063095734448019285,0,99
81,1119,FarHighWide,0.5,0.25,0.03,0.01584893192461113,0,0.5143165230001614
81,1120,FarHighWide,0.5,0.25,0.03,0.019952623149688792,0,99
81,1121,FarHighWide,0.5,0.25,0.03,0.025118864315095798,0,99
81,1122,FarHighWide,0.5,0.25,0.03,0.03162277660168379,1,0.2847270660004142
81,1123,Constant,0.1,0.1,0.1,0.01995262314968879,0,99
81,1124,FarHighNarrow,0.2,0.15,0.1,0.012589254117941668,0,99
81,1125,Constant,0.1,0.1,0.1,0.025118864315095794,0,99
81,1126,FarLowNarrow,0.1,0.15,0.2,0.025118864315095794,1,0.43223928500083275
81,1127,Constant,0.1,0.1,0.1,0.031622776601683784,0,99
81,1128,FarHighWide,0.5,0.25,0.03,0.025118864315095798,1,0.3213628649991733
81,1129,FarHighNarrow,0.2,0.15,0.1,0.01584893192461113,0,99
81,1130,FarHighNarrow,0.2,0.15,0.1,0.019952623149688792,0,99
81,1131,Constant,0.1,0.1,0.1,0.03981071705534971,0,99
81,1132,FarLowNarrow,0.1,0.15,0.2,0.01995262314968879,0,99
81,1133,FarHighWide,0.5,0.25,0.03,0.019952623149688792,0,99
81,1134,FarHighNarrow,0.2,0.15,0.1,0.025118864315095798,1,0.38962709400038875
81,1135,FarHighWide,0.5,0.25,0.03,0.025118864315095798,0,99
81,1136,FarLowNarrow,0.1,0.15,0.2,0.025118864315095794,1,0.32280935299968405
81,1137,FarLowNarrow,0.1,0.15,0.2,0.01995262314968879,0,99
81,1138,FarLowWide,0.03,0.25,0.5,0.019952623149688785,0,0.3410676189996593
81,1139,FarLowWide,0.03,0.25,0.5,0.025118864315095787,1,0.3229137050002464
81,1140,Constant,0.1,0.1,0.1,0.05011872336272721,1,0.20130628299921227
81,1141,FarLowWide_null,0.03,0.25,0.5,0.00794328234724281,1,0.2924192629998288
81,1142,FarLowNarrow,0.1,0.15,0.2,0.025118864315095794,0,99
81,1143,FarLowWide,0.03,0.25,0.5,0.019952623149688785,1,0.47759664700060966
81,1144,FarLowWide,0.03,0.25,0.5,0.015848931924611124,1,0.4679465259996505
81,1145,Constant,0.1,0.1,0.1,0.03981071705534971,1,0.3379390929985675
81,1146,FarHighNarrow,0.2,0.15,0.1,0.019952623149688792,0,99
81,1147,FarHighWide,0.5,0.25,0.03,0.03162277660168379,1,0.269395416999032
81,1148,FarLowWide,0.03,0.25,0.5,0.012589254117941663,0,99
81,1149,FarLowNarrow,0.1,0.15,0.2,0.031622776601683784,1,0.4084026080017793
81,1150,FarLowNarrow,0.1,0.15,0.2,0.02511886431509579,1,0.3748106420007389
81,1151,FarHighNarrow,0.2,0.15,0.1,0.025118864315095798,1,0.33318435900037
81,1152,FarHighWide,0.5,0.25,0.03,0.025118864315095798,0,99
81,1153,FarLowNarrow,0.1,0.15,0.2,0.01995262314968879,0,99
81,1154,FarHighWide,0.5,0.25,0.03,0.03162277660168379,0,99
81,1155,FarHighWide,0.5,0.25,0.03,0.03981071705534973,0,99
81,1156,FarLowNarrow,0.1,0.15,0.2,0.025118864315095794,0,99
81,1157,FarLowNarrow,0.1,0.15,0.2,0.031622776601683784,1,0.3181621980002092
81,1158,FarHighWide,0.5,0.25,0.03,0.050118723362727234,1,0.33182355300050403
81,1159,FarHighNarrow,0.2,0.15,0.1,0.019952623149688792,0,99
81,1160,FarHighNarrow,0.2,0.15,0.1,0.025118864315095798,0,99
81,1161,FarHighWide,0.5,0.25,0.03,0.03981071705534973,0,99
81,1162,FarLowNarrow,0.1,0.15,0.2,0.02511886431509579,0,99
81,1163,FarHighWide,0.5,0.25,0.03,0.050118723362727234,1,0.31884316699870396
81,1164,FarLowNarrow,0.1,0.15,0.2,0.031622776601683784,1,0.32345593699938036
81,1165,FarLowNarrow,0.1,0.15,0.2,0.02511886431509579,0,99
81,1166,FarHighNarrow,0.2,0.15,0.1,0.03162277660168379,1,0.35222185800012085
81,1167,FarLowNarrow,0.1,0.15,0.2,0.031622776601683784,0,99
81,1168,FarLowNarrow,0.1,0.15,0.2,0.03981071705534971,0,99
81,1169,FarLowNarrow,0.1,0.15,0.2,0.05011872336272721,0,99
81,1170,FarHighNarrow,0.2,0.15,0.1,0.025118864315095798,1,0.37581366899939894
81,1171,FarLowNarrow,0.1,0.15,0.2,0.0630957344480193,1,0.252825074001521
81,1172,FarHighNarrow,0.2,0.15,0.1,0.019952623149688792,0,0.4429759069989814
81,1173,FarLowNarrow,0.1,0.15,0.2,0.050118723362727206,1,0.3181226249998872
81,1174,FarHighWide,0.5,0.25,0.03,0.03981071705534973,1,0.32410435100064205
81,1175,FarHighNarrow,0.2,0.15,0.1,0.025118864315095798,1,0.4984833239996078
81,1176,FarHighNarrow,0.2,0.15,0.1,0.019952623149688792,1,0.3737101419992541
81,1177,FarHighWide,0.5,0.25,0.03,0.03162277660168379,1,0.3795810800002073
81,1178,FarLowNarrow,0.1,0.15,0.2,0.039810717055349706,1,0.2818193279999832
81,1179,FarHighWide,0.5,0.25,0.03,0.025118864315095798,1,0.4392014499990182
81,1180,FarLowNarrow,0.1,0.15,0.2,0.03162277660168378,1,0.32515621799939254
81,1181,FarLowNarrow,0.1,0.15,0.2,0.025118864315095787,1,0.37932331199954206
81,1182,FarHighWide,0.5,0.25,0.03,0.019952623149688792,1,0.38527091499963717
81,1183,FarLowNarrow,0.1,0.15,0.2,0.019952623149688785,1,0.40653769100026693
81,1184,FarLowNarrow,0.1,0.15,0.2,0.015848931924611124,1,0.5890999660005036
81,1185,FarLowNarrow,0.1,0.15,0.2,0.012589254117941663,0,99
81,1186,FarLowNarrow,0.1,0.15,0.2,0.015848931924611124,0,0.47546805899946776
81,1187,FarLowNarrow,0.1,0.15,0.2,0.019952623149688785,0,99
81,1188,FarLowNarrow,0.1,0.15,0.2,0.025118864315095787,1,0.4525917909995769
81,1189,FarLowNarrow,0.1,0.15,0.2,0.019952623149688785,0,99
81,1190,FarLowNarrow,0.1,0.15,0.2,0.025118864315095787,1,0.4778415679993486
81,1191,FarLowNarrow,0.1,0.15,0.2,0.019952623149688785,1,0.36397890700027347
81,1192,FarLowNarrow,0.1,0.15,0.2,0.015848931924611124,1,0.414768800001184
81,1193,FarLowNarrow,0.1,0.15,0.2,0.012589254117941663,1,0.3333232869990752
81,1194,FarLowNarrow,0.1,0.15,0.2,0.009999999999999992,1,0.49131879700144054
81,1195,FarLowNarrow,0.1,0.15,0.2,0.007943282347242809,0,0.4173710190007114
81,1196,FarLowNarrow,0.1,0.15,0.2,0.009999999999999993,0,0.5664596499991603
81,1197,FarLowNarrow,0.1,0.15,0.2,0.012589254117941664,1,0.5407092739988002
81,1198,FarLowNarrow,0.1,0.15,0.2,0.009999999999999993,0,0.49088637699969695
81,1199,FarLowNarrow,0.1,0.15,0.2,0.012589254117941664,0,0.45723004399951606
