Participant_Number,Trial_Number,Condition,FCfar,FCmed,FCclose,Target_Contrast,Correct_Response,Reaction_Time
86,0,FarHighWide,0.5,0.25,0.03,0.1,1,0.4602762979993713
86,1,ThreeLinesControl,0.0,0.0,0.1,0.1,1,0.5954889159984305
86,2,FarHighNarrow,0.2,0.15,0.1,0.1,1,0.505628617000184
86,3,FarHighNarrow,0.2,0.15,0.1,0.07943282347242815,1,0.29615223800283275
86,4,FarLowWide,0.03,0.25,0.5,0.1,1,0.20374875299967243
86,5,FarHighNarrow_null,0.2,0.15,0.1,0.1,0,0.19299642700207187
86,6,FarLowWide,0.03,0.25,0.5,0.07943282347242815,1,0.34911451400330407
86,7,FarHighNarrow,0.2,0.15,0.1,0.06309573444801932,1,0.2982125010021264
86,8,FarLowWide,0.03,0.25,0.5,0.06309573444801932,1,0.2481648339999083
86,9,FarHighNarrow,0.2,0.15,0.1,0.05011872336272722,1,0.23539358800189802
86,10,FarLowWide,0.03,0.25,0.5,0.05011872336272722,1,0.2256593639976927
86,11,Constant,0.1,0.1,0.1,0.1,1,0.2318413290013268
86,12,FarLowWide,0.03,0.25,0.5,0.03981071705534971,1,0.21372586299912655
86,13,FarLowNarrow,0.1,0.15,0.2,0.1,1,0.25209527100014384
86,14,FarLowNarrow_null,0.1,0.15,0.2,0.1,1,0.32985542499955045
86,15,ThreeLinesControl,0.0,0.0,0.1,0.07943282347242815,1,0.17505664500276907
86,16,FarLowWide,0.03,0.25,0.5,0.031622776601683784,1,0.21361207999871112
86,17,FarLowWide,0.03,0.25,0.5,0.02511886431509579,1,0.30034530099874246
86,18,FarHighNarrow,0.2,0.15,0.1,0.03981071705534971,1,0.30711353899823735
86,19,ThreeLinesControl,0.0,0.0,0.1,0.06309573444801932,1,0.3054474290001963
86,20,FarHighWide,0.5,0.25,0.03,0.07943282347242815,1,0.3731104700018477
86,21,FarLowNarrow_null,0.1,0.15,0.2,0.07943282347242815,1,0.5153792410019378
86,22,FarHighWide,0.5,0.25,0.03,0.06309573444801932,1,0.329176021998137
86,23,FarHighNarrow,0.2,0.15,0.1,0.031622776601683784,1,0.22060650100320345
86,24,Constant,0.1,0.1,0.1,0.07943282347242815,1,0.29864820100192446
86,25,FarHighNarrow,0.2,0.15,0.1,0.02511886431509579,1,0.3500190720005776
86,26,FarHighNarrow,0.2,0.15,0.1,0.01995262314968879,1,0.332056110000849
86,27,FarHighNarrow,0.2,0.15,0.1,0.015848931924611127,1,0.25031685900103184
86,28,FarLowNarrow,0.1,0.15,0.2,0.07943282347242815,1,0.3203564550021838
86,29,FarHighWide,0.5,0.25,0.03,0.05011872336272722,1,0.3574354319971462
86,30,FarLowNarrow,0.1,0.15,0.2,0.06309573444801932,1,0.4276811240015377
86,31,FarHighNarrow,0.2,0.15,0.1,0.012589254117941666,1,0.54579666599966
86,32,FarHighNarrow_null,0.2,0.15,0.1,0.1,1,0.44798055199862574
86,33,FarHighWide,0.5,0.25,0.03,0.03981071705534971,1,0.31835775900253793
86,34,FarHighNarrow,0.2,0.15,0.1,0.009999999999999995,1,0.46948692700243555
86,35,Constant,0.1,0.1,0.1,0.06309573444801932,1,0.36338699599946267
86,36,FarLowWide,0.03,0.25,0.5,0.01995262314968879,1,0.5200725290014816
86,37,Constant_null,0.1,0.1,0.1,0.1,1,0.4763765819989203
86,38,FarHighNarrow_null,0.2,0.15,0.1,0.07943282347242815,1,0.4826496890018461
86,39,FarLowWide,0.03,0.25,0.5,0.015848931924611127,1,0.5180681099991489
86,40,FarHighNarrow,0.2,0.15,0.1,0.00794328234724281,1,0.38799430600192863
86,41,ThreeLinesControl,0.0,0.0,0.1,0.05011872336272722,1,0.42408941200119443
86,42,FarLowNarrow,0.1,0.15,0.2,0.05011872336272722,1,0.30122838899842463
86,43,FarLowWide,0.03,0.25,0.5,0.012589254117941666,0,0.3868707980000181
86,44,FarLowNarrow,0.1,0.15,0.2,0.03981071705534971,1,0.3533234470014577
86,45,FarHighNarrow,0.2,0.15,0.1,0.0063095734448019285,1,0.19967851500041434
86,46,ThreeLinesControl,0.0,0.0,0.1,0.03981071705534971,1,0.23577136800304288
86,47,FarLowWide,0.03,0.25,0.5,0.015848931924611127,1,0.2976999889979197
86,48,Constant,0.1,0.1,0.1,0.05011872336272722,1,0.3762491179986682
86,49,FarLowNarrow,0.1,0.15,0.2,0.031622776601683784,1,0.2624891090017627
86,50,FarLowNarrow,0.1,0.15,0.2,0.02511886431509579,1,0.26865140199879534
86,51,FarLowNarrow,0.1,0.15,0.2,0.01995262314968879,1,0.2908835439993709
86,52,ThreeLinesControl_null,0.0,0.0,0.1,0.1,1,0.3990774610028893
86,53,Constant,0.1,0.1,0.1,0.03981071705534971,1,0.29228843099917867
86,54,FarHighNarrow,0.2,0.15,0.1,0.005011872336272719,1,0.24316400500174495
86,55,FarHighNarrow,0.2,0.15,0.1,0.00398107170553497,0,0.4301232389989309
86,56,FarHighNarrow,0.2,0.15,0.1,0.00501187233627272,0,0.41906183500032057
86,57,ThreeLinesControl,0.0,0.0,0.1,0.031622776601683784,1,0.3055034399985743
86,58,ThreeLinesControl,0.0,0.0,0.1,0.02511886431509579,1,0.24587754599997425
86,59,ThreeLinesControl,0.0,0.0,0.1,0.01995262314968879,1,0.25977643099759007
86,60,FarHighNarrow,0.2,0.15,0.1,0.006309573444801929,0,0.3139578559967049
86,61,FarHighNarrow,0.2,0.15,0.1,0.007943282347242812,0,0.46425092199933715
86,62,FarHighWide,0.5,0.25,0.03,0.031622776601683784,1,0.35024399399844697
86,63,FarLowNarrow,0.1,0.15,0.2,0.015848931924611127,1,0.26041841999904136
86,64,ThreeLinesControl,0.0,0.0,0.1,0.015848931924611127,1,0.5146587189992715
86,65,FarHighWide,0.5,0.25,0.03,0.02511886431509579,1,0.36074397199990926
86,66,FarLowWide,0.03,0.25,0.5,0.012589254117941666,0,0.41287895800269325
86,67,Constant,0.1,0.1,0.1,0.031622776601683784,0,99
86,68,FarLowWide,0.03,0.25,0.5,0.015848931924611127,1,0.20202054199762642
86,69,FarHighWide,0.5,0.25,0.03,0.01995262314968879,1,0.2772518090023368
86,70,FarLowNarrow,0.1,0.15,0.2,0.012589254117941666,1,0.38742900299985195
86,71,Constant,0.1,0.1,0.1,0.03981071705534971,1,0.26273107700035325
86,72,ThreeLinesControl,0.0,0.0,0.1,0.012589254117941666,1,0.3794724020008289
86,73,FarHighWide,0.5,0.25,0.03,0.015848931924611127,1,0.4896280270004354
86,74,FarLowWide,0.03,0.25,0.5,0.012589254117941666,0,0.5419662349995633
86,75,Constant,0.1,0.1,0.1,0.031622776601683784,1,0.30012368299867376
86,76,ThreeLinesControl,0.0,0.0,0.1,0.009999999999999995,1,0.3864132580019941
86,77,FarLowNarrow,0.1,0.15,0.2,0.009999999999999995,1,0.22461212599955616
86,78,FarLowNarrow,0.1,0.15,0.2,0.00794328234724281,0,0.4545011330010311
86,79,FarLowWide,0.03,0.25,0.5,0.015848931924611127,1,0.4038601109969022
86,80,FarLowNarrow,0.1,0.15,0.2,0.009999999999999995,1,0.25895325600140495
86,81,FarHighNarrow,0.2,0.15,0.1,0.009999999999999997,0,0.6571780869999202
86,82,FarHighNarrow,0.2,0.15,0.1,0.012589254117941668,1,0.2478288429992972
86,83,FarLowWide,0.03,0.25,0.5,0.012589254117941666,1,0.35715565599821275
86,84,FarHighNarrow,0.2,0.15,0.1,0.009999999999999997,0,0.540650942002685
86,85,FarHighNarrow,0.2,0.15,0.1,0.012589254117941668,0,0.3276965279983415
86,86,FarHighNarrow,0.2,0.15,0.1,0.01584893192461113,1,0.2859686119991238
86,87,FarHighNarrow_null,0.2,0.15,0.1,0.06309573444801932,0,0.20103410199953942
86,88,Constant_null,0.1,0.1,0.1,0.07943282347242815,1,0.4872444849970634
86,89,Constant,0.1,0.1,0.1,0.02511886431509579,1,0.6052378630010935
86,90,FarHighWide,0.5,0.25,0.03,0.012589254117941666,1,0.4414878950010461
86,91,FarLowNarrow,0.1,0.15,0.2,0.00794328234724281,0,0.46333104799850844
86,92,Constant,0.1,0.1,0.1,0.01995262314968879,1,0.5337265159978415
86,93,FarHighWide_null,0.5,0.25,0.03,0.1,0,0.5944295119988965
86,94,FarLowNarrow,0.1,0.15,0.2,0.009999999999999995,1,0.4168045639999036
86,95,Constant,0.1,0.1,0.1,0.015848931924611127,1,0.6152788299987151
86,96,FarHighWide,0.5,0.25,0.03,0.009999999999999995,1,0.5012406560017553
86,97,FarHighNarrow,0.2,0.15,0.1,0.012589254117941668,1,0.48430924299827893
86,98,FarLowNarrow,0.1,0.15,0.2,0.00794328234724281,0,0.544764040998416
86,99,ThreeLinesControl,0.0,0.0,0.1,0.00794328234724281,1,0.1914088819976314
86,100,FarLowWide,0.03,0.25,0.5,0.009999999999999995,1,0.2618182539990812
86,101,FarLowWide,0.03,0.25,0.5,0.00794328234724281,1,0.35216202799711027
86,102,FarHighWide,0.5,0.25,0.03,0.00794328234724281,1,0.3579514150005707
86,103,ThreeLinesControl,0.0,0.0,0.1,0.0063095734448019285,1,0.4841762700016261
86,104,Constant,0.1,0.1,0.1,0.012589254117941666,1,0.4636618139993516
86,105,ThreeLinesControl,0.0,0.0,0.1,0.005011872336272719,0,0.5816417620007996
86,106,ThreeLinesControl,0.0,0.0,0.1,0.0063095734448019285,1,0.4177761089995329
86,107,FarLowWide,0.03,0.25,0.5,0.0063095734448019285,0,0.45587811500081443
86,108,FarLowWide,0.03,0.25,0.5,0.00794328234724281,0,0.38210853199780104
86,109,FarLowNarrow,0.1,0.15,0.2,0.009999999999999995,0,0.30007714300154475
86,110,ThreeLinesControl,0.0,0.0,0.1,0.005011872336272719,0,0.6183331659995019
86,111,FarLowNarrow_null,0.1,0.15,0.2,0.06309573444801932,1,0.4233417239993287
86,112,Constant,0.1,0.1,0.1,0.009999999999999995,0,0.36727381799937575
86,113,ThreeLinesControl,0.0,0.0,0.1,0.0063095734448019285,0,0.5805269039992709
86,114,FarLowNarrow,0.1,0.15,0.2,0.012589254117941666,0,0.34748297500118497
86,115,FarHighNarrow,0.2,0.15,0.1,0.009999999999999997,1,0.4481448820006335
86,116,FarLowWide,0.03,0.25,0.5,0.009999999999999995,0,0.5261024270002963
86,117,FarLowWide,0.03,0.25,0.5,0.012589254117941666,0,0.5375372050002625
86,118,FarHighNarrow,0.2,0.15,0.1,0.007943282347242812,1,0.4633582530004787
86,119,ThreeLinesControl,0.0,0.0,0.1,0.00794328234724281,1,0.4283723509979609
86,120,FarLowWide,0.03,0.25,0.5,0.015848931924611127,0,0.5642034230004356
86,121,FarLowWide,0.03,0.25,0.5,0.01995262314968879,0,0.2827623310004128
86,122,Constant,0.1,0.1,0.1,0.012589254117941666,0,0.18556307200196898
86,123,ThreeLinesControl,0.0,0.0,0.1,0.0063095734448019285,0,0.4089626290005981
86,124,Constant,0.1,0.1,0.1,0.015848931924611127,0,0.2772634789980657
86,125,ThreeLinesControl,0.0,0.0,0.1,0.00794328234724281,0,0.21897755000100005
86,126,FarLowWide,0.03,0.25,0.5,0.025118864315095794,0,0.23305012100172462
86,127,ThreeLinesControl,0.0,0.0,0.1,0.009999999999999995,0,99
86,128,FarHighWide,0.5,0.25,0.03,0.0063095734448019285,0,0.46637859600014053
86,129,ThreeLinesControl,0.0,0.0,0.1,0.012589254117941666,0,0.34843219200047315
86,130,FarLowWide,0.03,0.25,0.5,0.031622776601683784,1,0.4105299179973372
86,131,FarLowNarrow,0.1,0.15,0.2,0.015848931924611127,1,0.7369443819989101
86,132,FarHighWide,0.5,0.25,0.03,0.00794328234724281,1,0.4627968360000523
86,133,ThreeLinesControl,0.0,0.0,0.1,0.015848931924611127,1,0.3882233630029077
86,134,FarHighWide,0.5,0.25,0.03,0.0063095734448019285,1,0.4739151950016094
86,135,FarHighWide_null,0.5,0.25,0.03,0.1,0,0.51257943499877
86,136,FarHighWide,0.5,0.25,0.03,0.005011872336272719,0,0.6063513599983708
86,137,ThreeLinesControl,0.0,0.0,0.1,0.012589254117941666,0,0.6040292539983056
86,138,FarHighWide,0.5,0.25,0.03,0.0063095734448019285,0,0.6271120940000401
86,139,ThreeLinesControl,0.0,0.0,0.1,0.015848931924611127,1,0.5390753860010591
86,140,ThreeLinesControl,0.0,0.0,0.1,0.012589254117941666,0,0.5105005120021815
86,141,Constant,0.1,0.1,0.1,0.01995262314968879,1,0.412155073001486
86,142,FarHighWide,0.5,0.25,0.03,0.00794328234724281,1,0.4411391089997778
86,143,Constant,0.1,0.1,0.1,0.015848931924611127,1,0.36433025000224006
86,144,FarHighNarrow,0.2,0.15,0.1,0.006309573444801929,0,0.4748231119992852
86,145,FarHighNarrow,0.2,0.15,0.1,0.007943282347242812,0,0.472745669001597
86,146,FarHighNarrow,0.2,0.15,0.1,0.009999999999999997,1,0.45995912899888935
86,147,ThreeLinesControl,0.0,0.0,0.1,0.015848931924611127,1,0.3701647959969705
86,148,FarLowWide,0.03,0.25,0.5,0.02511886431509579,1,0.24730951500168885
86,149,FarLowWide,0.03,0.25,0.5,0.01995262314968879,1,0.4373879090016999
86,150,FarHighWide,0.5,0.25,0.03,0.0063095734448019285,1,0.41148870600227383
86,151,FarLowNarrow,0.1,0.15,0.2,0.012589254117941666,0,99
86,152,FarHighWide,0.5,0.25,0.03,0.005011872336272719,1,0.4080131159971643
86,153,FarLowWide,0.03,0.25,0.5,0.015848931924611127,1,0.501985398997931
86,154,FarLowWide,0.03,0.25,0.5,0.012589254117941666,0,0.4443942719990446
86,155,Constant,0.1,0.1,0.1,0.012589254117941666,0,0.5397411890007788
86,156,Constant,0.1,0.1,0.1,0.015848931924611127,1,0.41746477100241464
86,157,ThreeLinesControl,0.0,0.0,0.1,0.012589254117941666,1,0.3255763439992734
86,158,FarLowWide_null,0.03,0.25,0.5,0.1,0,99
86,159,ThreeLinesControl,0.0,0.0,0.1,0.009999999999999995,0,0.39947638000012375
86,160,FarHighWide,0.5,0.25,0.03,0.00398107170553497,1,0.39524997799890116
86,161,FarHighWide,0.5,0.25,0.03,0.0031622776601683772,0,0.6892207389973919
86,162,FarLowWide_null,0.03,0.25,0.5,0.1,1,0.4291726049996214
86,163,FarLowWide,0.03,0.25,0.5,0.015848931924611127,1,0.46641016499779653
86,164,FarLowWide,0.03,0.25,0.5,0.012589254117941666,1,0.6007078190013999
86,165,ThreeLinesControl_null,0.0,0.0,0.1,0.07943282347242815,1,0.4786978679985623
86,166,ThreeLinesControl_null,0.0,0.0,0.1,0.06309573444801932,1,0.4289795420008886
86,167,FarLowNarrow_null,0.1,0.15,0.2,0.05011872336272722,1,0.33795844500127714
86,168,FarLowNarrow,0.1,0.15,0.2,0.015848931924611127,0,0.32808047700018506
86,169,FarHighWide,0.5,0.25,0.03,0.00398107170553497,0,0.534076140000252
86,170,FarLowNarrow,0.1,0.15,0.2,0.01995262314968879,0,0.5168358869996155
86,171,FarLowNarrow,0.1,0.15,0.2,0.025118864315095794,1,0.5560829149981146
86,172,FarLowWide_null,0.03,0.25,0.5,0.07943282347242815,1,0.5300619689987798
86,173,Constant,0.1,0.1,0.1,0.012589254117941666,1,0.6299168990008184
86,174,FarHighNarrow,0.2,0.15,0.1,0.007943282347242812,1,0.6120758059987566
86,175,FarLowWide,0.03,0.25,0.5,0.009999999999999995,0,0.5191575130011188
86,176,FarHighNarrow,0.2,0.15,0.1,0.006309573444801929,0,0.38952943600088474
86,177,FarLowWide,0.03,0.25,0.5,0.012589254117941666,0,0.5156295880005928
86,178,ThreeLinesControl,0.0,0.0,0.1,0.012589254117941666,1,0.44675952900070115
86,179,FarHighNarrow,0.2,0.15,0.1,0.007943282347242812,1,0.5248358649987495
86,180,Constant,0.1,0.1,0.1,0.009999999999999995,1,0.6340659220004454
86,181,FarLowNarrow,0.1,0.15,0.2,0.01995262314968879,1,0.472178021002037
86,182,FarLowNarrow_null,0.1,0.15,0.2,0.03981071705534971,1,0.5103196490017581
86,183,ThreeLinesControl,0.0,0.0,0.1,0.009999999999999995,0,0.4927103649970377
86,184,FarHighNarrow,0.2,0.15,0.1,0.006309573444801929,0,0.4986689489996934
86,185,FarHighNarrow,0.2,0.15,0.1,0.007943282347242812,1,0.6568735460023163
86,186,ThreeLinesControl,0.0,0.0,0.1,0.012589254117941666,0,0.47941328399974736
86,187,FarHighWide,0.5,0.25,0.03,0.00501187233627272,0,0.5663036459991417
86,188,FarLowNarrow,0.1,0.15,0.2,0.015848931924611127,1,0.460713279000629
86,189,FarLowNarrow,0.1,0.15,0.2,0.012589254117941666,1,0.5359428920019127
86,190,Constant_null,0.1,0.1,0.1,0.06309573444801932,1,0.4854564719971677
86,191,ThreeLinesControl,0.0,0.0,0.1,0.015848931924611127,1,0.49984915599998203
86,192,Constant,0.1,0.1,0.1,0.00794328234724281,1,0.5034939509969263
86,193,FarHighNarrow,0.2,0.15,0.1,0.006309573444801929,1,0.4844851580019167
86,194,FarHighNarrow,0.2,0.15,0.1,0.00501187233627272,0,0.6800306900004216
86,195,FarHighWide,0.5,0.25,0.03,0.006309573444801929,0,0.5021697810007026
86,196,FarHighNarrow,0.2,0.15,0.1,0.006309573444801929,0,0.6042892960031168
86,197,FarLowNarrow_null,0.1,0.15,0.2,0.031622776601683784,1,0.4744976189977024
86,198,FarLowNarrow,0.1,0.15,0.2,0.009999999999999995,1,0.43257804800305166
86,199,FarHighWide,0.5,0.25,0.03,0.007943282347242812,0,0.8868858729983913
86,200,ThreeLinesControl,0.0,0.0,0.1,0.012589254117941666,0,0.48482395300015924
86,201,FarLowNarrow,0.1,0.15,0.2,0.00794328234724281,0,0.3137973899974895
86,202,FarLowNarrow,0.1,0.15,0.2,0.009999999999999995,0,0.2722938150000118
86,203,FarLowNarrow,0.1,0.15,0.2,0.012589254117941666,0,0.3585440719980397
86,204,ThreeLinesControl,0.0,0.0,0.1,0.015848931924611127,1,0.4376592740009073
86,205,ThreeLinesControl,0.0,0.0,0.1,0.012589254117941666,1,0.352756563002913
86,206,FarHighNarrow,0.2,0.15,0.1,0.007943282347242812,1,0.510968000999128
86,207,FarLowNarrow,0.1,0.15,0.2,0.015848931924611127,1,0.3173979329985741
86,208,Constant,0.1,0.1,0.1,0.0063095734448019285,0,0.6164073869986169
86,209,FarHighNarrow,0.2,0.15,0.1,0.006309573444801929,1,0.5743243830002029
86,210,FarHighWide,0.5,0.25,0.03,0.009999999999999997,1,0.4926334450028662
86,211,FarHighNarrow,0.2,0.15,0.1,0.00501187233627272,1,0.8475647480008774
86,212,FarLowWide,0.03,0.25,0.5,0.015848931924611127,1,0.6298400289997517
86,213,FarLowNarrow,0.1,0.15,0.2,0.012589254117941666,1,0.3559381260020018
86,214,Constant,0.1,0.1,0.1,0.00794328234724281,1,0.4181750970019493
86,215,FarLowWide,0.03,0.25,0.5,0.012589254117941666,0,0.6241538190006395
86,216,FarHighWide,0.5,0.25,0.03,0.007943282347242812,1,0.7333763700007694
86,217,Constant,0.1,0.1,0.1,0.0063095734448019285,0,0.47500854099780554
86,218,FarLowNarrow,0.1,0.15,0.2,0.009999999999999995,1,0.8485927990004711
86,219,FarLowNarrow,0.1,0.15,0.2,0.00794328234724281,1,0.30428485999800614
86,220,Constant_null,0.1,0.1,0.1,0.05011872336272722,0,0.46973088800223195
86,221,FarHighWide,0.5,0.25,0.03,0.006309573444801929,0,0.6009253509982955
86,222,FarHighWide,0.5,0.25,0.03,0.007943282347242812,1,0.3993984400003683
86,223,FarLowWide,0.03,0.25,0.5,0.015848931924611127,1,0.42132816500088666
86,224,FarLowNarrow,0.1,0.15,0.2,0.0063095734448019285,1,0.51244829999996
86,225,FarHighNarrow,0.2,0.15,0.1,0.00398107170553497,1,0.39816632400106755
86,226,ThreeLinesControl,0.0,0.0,0.1,0.009999999999999995,1,0.4840110589975666
86,227,FarLowWide,0.03,0.25,0.5,0.012589254117941666,0,0.48078838600122253
86,228,FarLowWide,0.03,0.25,0.5,0.015848931924611127,1,0.3819892829997116
86,229,ThreeLinesControl,0.0,0.0,0.1,0.00794328234724281,0,0.6918738870008383
86,230,FarHighNarrow_null,0.2,0.15,0.1,0.07943282347242814,1,0.5303583909990266
86,231,FarLowWide,0.03,0.25,0.5,0.012589254117941666,0,0.5364412070011895
86,232,Constant,0.1,0.1,0.1,0.00794328234724281,1,0.43075657000008505
86,233,FarLowWide,0.03,0.25,0.5,0.015848931924611127,1,0.44499282099786797
86,234,FarLowWide,0.03,0.25,0.5,0.012589254117941666,0,0.7069800739991479
86,235,FarHighWide,0.5,0.25,0.03,0.006309573444801929,0,0.4175497739997809
86,236,FarHighWide,0.5,0.25,0.03,0.007943282347242812,0,0.2943590270006098
86,237,FarLowWide,0.03,0.25,0.5,0.015848931924611127,1,0.5179969609998807
86,238,FarHighNarrow,0.2,0.15,0.1,0.0031622776601683772,1,0.3126123030015151
86,239,FarLowNarrow,0.1,0.15,0.2,0.005011872336272719,1,0.32687492500190274
86,240,FarHighWide_null,0.5,0.25,0.03,0.1,0,0.46810185400318005
86,241,FarHighNarrow,0.2,0.15,0.1,0.002511886431509578,0,0.667166246999841
86,242,FarHighNarrow,0.2,0.15,0.1,0.0031622776601683772,0,0.4022194569988642
86,243,FarLowNarrow_null,0.1,0.15,0.2,0.02511886431509579,1,0.279918178999651
86,244,ThreeLinesControl,0.0,0.0,0.1,0.009999999999999995,0,0.220803721997072
86,245,FarLowNarrow,0.1,0.15,0.2,0.00398107170553497,0,0.25049750300240703
86,246,FarLowWide,0.03,0.25,0.5,0.012589254117941666,0,0.24567887800003518
86,247,FarHighWide_null,0.5,0.25,0.03,0.1,1,0.36395741700107465
86,248,FarHighNarrow,0.2,0.15,0.1,0.00398107170553497,0,0.29765122100070585
86,249,FarLowWide,0.03,0.25,0.5,0.015848931924611127,0,0.2620046560004994
86,250,ThreeLinesControl,0.0,0.0,0.1,0.012589254117941666,0,0.3951845539995702
86,251,Constant,0.1,0.1,0.1,0.0063095734448019285,0,0.5374772369978018
86,252,ThreeLinesControl_null,0.0,0.0,0.1,0.05011872336272722,0,99
86,253,Constant,0.1,0.1,0.1,0.00794328234724281,0,0.37200104300063686
86,254,FarHighNarrow,0.2,0.15,0.1,0.00501187233627272,0,0.29004224500022247
86,255,Constant,0.1,0.1,0.1,0.009999999999999995,0,0.2800324769996223
86,256,ThreeLinesControl_null,0.0,0.0,0.1,0.06309573444801932,1,0.2850296679971507
86,257,FarHighNarrow,0.2,0.15,0.1,0.006309573444801929,0,0.2524143519985955
86,258,Constant_null,0.1,0.1,0.1,0.06309573444801932,1,0.2665277310006786
86,259,FarHighWide,0.5,0.25,0.03,0.009999999999999997,1,0.3687381740019191
86,260,FarLowNarrow,0.1,0.15,0.2,0.00501187233627272,0,0.39804554500005906
86,261,FarLowWide,0.03,0.25,0.5,0.01995262314968879,1,0.38810849799847347
86,262,FarLowWide,0.03,0.25,0.5,0.015848931924611127,0,0.39565887799835764
86,263,FarHighWide,0.5,0.25,0.03,0.007943282347242812,1,0.478453156996693
86,264,Constant,0.1,0.1,0.1,0.012589254117941666,1,0.443345188999956
86,265,ThreeLinesControl,0.0,0.0,0.1,0.015848931924611127,1,0.24768005200166954
86,266,FarLowWide_null,0.03,0.25,0.5,0.06309573444801932,1,0.42081248099930235
86,267,FarHighWide,0.5,0.25,0.03,0.006309573444801929,1,0.6425784249986464
86,268,FarLowNarrow,0.1,0.15,0.2,0.006309573444801929,1,0.3522551909991307
86,269,ThreeLinesControl,0.0,0.0,0.1,0.012589254117941666,0,0.4850974960027088
86,270,Constant,0.1,0.1,0.1,0.009999999999999995,1,0.3313868969999021
86,271,FarLowWide,0.03,0.25,0.5,0.01995262314968879,0,0.42565420400205767
86,272,Constant,0.1,0.1,0.1,0.00794328234724281,1,0.5265930999994453
86,273,FarLowNarrow,0.1,0.15,0.2,0.00501187233627272,0,0.4206571899994742
86,274,FarLowNarrow,0.1,0.15,0.2,0.006309573444801929,0,0.29089637500146637
86,275,FarLowWide_null,0.03,0.25,0.5,0.05011872336272722,1,0.29930689100001473
86,276,FarLowWide,0.03,0.25,0.5,0.025118864315095794,0,0.19136227399940253
86,277,FarLowWide,0.03,0.25,0.5,0.031622776601683784,0,0.22102074199938215
86,278,Constant_null,0.1,0.1,0.1,0.05011872336272722,1,0.41954077999980655
86,279,FarLowWide,0.03,0.25,0.5,0.03981071705534971,0,0.5263923230013461
86,280,FarLowWide,0.03,0.25,0.5,0.05011872336272721,0,0.5240597259980859
86,281,FarHighWide,0.5,0.25,0.03,0.00501187233627272,0,0.7621742629999062
86,282,FarLowNarrow,0.1,0.15,0.2,0.007943282347242812,0,0.5890027890018246
86,283,FarHighNarrow,0.2,0.15,0.1,0.007943282347242812,1,0.6431788839981891
86,284,FarLowWide,0.03,0.25,0.5,0.0630957344480193,1,0.3603399679996073
86,285,FarLowWide_null,0.03,0.25,0.5,0.03981071705534971,1,0.4144366779983102
86,286,Constant,0.1,0.1,0.1,0.0063095734448019285,0,0.5487410620007722
86,287,FarLowNarrow,0.1,0.15,0.2,0.009999999999999997,0,0.35502900700157625
86,288,FarHighNarrow,0.2,0.15,0.1,0.006309573444801929,0,0.24093427899788367
86,289,FarLowNarrow,0.1,0.15,0.2,0.012589254117941668,0,0.3423366589995567
86,290,Constant,0.1,0.1,0.1,0.00794328234724281,1,0.4935440799999924
86,291,FarHighNarrow_null,0.2,0.15,0.1,0.06309573444801932,0,99
86,292,FarHighWide,0.5,0.25,0.03,0.006309573444801929,0,0.42479811999874073
86,293,FarLowWide,0.03,0.25,0.5,0.050118723362727206,1,0.3988521799983573
86,294,FarHighNarrow,0.2,0.15,0.1,0.007943282347242812,0,99
86,295,Constant,0.1,0.1,0.1,0.0063095734448019285,1,0.36794221899981494
86,296,ThreeLinesControl,0.0,0.0,0.1,0.015848931924611127,1,0.43822482200266677
86,297,FarHighWide,0.5,0.25,0.03,0.007943282347242812,1,0.3564734649989987
86,298,FarLowNarrow,0.1,0.15,0.2,0.01584893192461113,1,0.3677296739988378
86,299,FarHighWide,0.5,0.25,0.03,0.006309573444801929,1,0.38976833400010946
86,300,FarLowNarrow,0.1,0.15,0.2,0.012589254117941668,0,0.44378658099958557
86,301,FarLowNarrow_null,0.1,0.15,0.2,0.01995262314968879,1,0.4238718130000052
86,302,Constant,0.1,0.1,0.1,0.005011872336272719,1,0.49368321300062235
86,303,ThreeLinesControl_null,0.0,0.0,0.1,0.05011872336272722,1,0.4360112840004149
86,304,FarLowWide,0.03,0.25,0.5,0.039810717055349706,1,0.3303487720004341
86,305,FarLowWide,0.03,0.25,0.5,0.03162277660168378,1,0.47260591500162263
86,306,FarLowNarrow,0.1,0.15,0.2,0.01584893192461113,1,0.4308504439977696
86,307,ThreeLinesControl,0.0,0.0,0.1,0.012589254117941666,0,0.4538544669994735
86,308,FarHighWide,0.5,0.25,0.03,0.00501187233627272,1,0.3403324210012215
86,309,ThreeLinesControl_null,0.0,0.0,0.1,0.03981071705534971,1,0.42394601100022555
86,310,FarLowWide,0.03,0.25,0.5,0.025118864315095787,1,0.19921625099959783
86,311,FarHighWide,0.5,0.25,0.03,0.00398107170553497,1,0.28137695799887297
86,312,FarHighNarrow,0.2,0.15,0.1,0.009999999999999997,1,0.2636053730020649
86,313,FarLowNarrow,0.1,0.15,0.2,0.012589254117941668,1,0.31026570700123557
86,314,FarLowWide,0.03,0.25,0.5,0.019952623149688785,0,99
86,315,FarLowNarrow,0.1,0.15,0.2,0.009999999999999997,0,0.6631791640029405
86,316,FarLowWide,0.03,0.25,0.5,0.025118864315095787,1,0.5170300749996386
86,317,ThreeLinesControl,0.0,0.0,0.1,0.015848931924611127,1,0.3944445830020413
86,318,ThreeLinesControl,0.0,0.0,0.1,0.012589254117941666,1,0.272113322000223
86,319,Constant,0.1,0.1,0.1,0.00398107170553497,0,0.2866678589998628
86,320,FarLowNarrow,0.1,0.15,0.2,0.012589254117941668,0,0.25297676700211014
86,321,Constant,0.1,0.1,0.1,0.00501187233627272,0,0.2911027340014698
86,322,FarLowWide,0.03,0.25,0.5,0.019952623149688785,0,0.24909642999773496
86,323,ThreeLinesControl,0.0,0.0,0.1,0.009999999999999995,0,0.22330612499717972
86,324,ThreeLinesControl,0.0,0.0,0.1,0.012589254117941666,0,0.23849029000120936
86,325,FarHighNarrow,0.2,0.15,0.1,0.007943282347242812,0,0.22661239199806005
86,326,FarLowWide,0.03,0.25,0.5,0.025118864315095787,0,0.224317288997554
86,327,FarLowNarrow,0.1,0.15,0.2,0.01584893192461113,0,0.2226967889982916
86,328,Constant,0.1,0.1,0.1,0.006309573444801929,0,0.2500815159983176
86,329,Constant,0.1,0.1,0.1,0.007943282347242812,0,0.2161186240009556
86,330,FarHighNarrow,0.2,0.15,0.1,0.009999999999999997,0,0.19513657100105775
86,331,FarHighWide_null,0.5,0.25,0.03,0.07943282347242815,0,99
86,332,FarLowWide,0.03,0.25,0.5,0.03162277660168378,1,0.42034087700085365
86,333,FarLowWide,0.03,0.25,0.5,0.025118864315095787,1,0.3307312200013257
86,334,ThreeLinesControl,0.0,0.0,0.1,0.015848931924611127,1,0.4169254500011448
86,335,ThreeLinesControl,0.0,0.0,0.1,0.012589254117941666,0,0.5268791330017848
86,336,FarHighNarrow,0.2,0.15,0.1,0.012589254117941668,0,0.3481700429983903
86,337,ThreeLinesControl,0.0,0.0,0.1,0.015848931924611127,0,0.3143351889993937
86,338,FarLowNarrow,0.1,0.15,0.2,0.019952623149688792,0,0.36063450900110183
86,339,FarLowNarrow,0.1,0.15,0.2,0.025118864315095798,1,0.3361445520022244
86,340,ThreeLinesControl,0.0,0.0,0.1,0.01995262314968879,1,0.4228032510000048
86,341,FarHighWide,0.5,0.25,0.03,0.0031622776601683772,0,0.5379689919973316
86,342,Constant,0.1,0.1,0.1,0.009999999999999997,0,0.36797803700028453
86,343,FarLowNarrow,0.1,0.15,0.2,0.019952623149688792,0,0.3889260819996707
86,344,Constant,0.1,0.1,0.1,0.012589254117941668,1,0.4800829820014769
86,345,FarHighNarrow,0.2,0.15,0.1,0.01584893192461113,1,0.39057500299895764
86,346,ThreeLinesControl,0.0,0.0,0.1,0.015848931924611127,1,0.41263585499837063
86,347,FarHighWide,0.5,0.25,0.03,0.00398107170553497,0,0.5358031180003309
86,348,Constant,0.1,0.1,0.1,0.009999999999999997,0,0.37393877200156567
86,349,ThreeLinesControl,0.0,0.0,0.1,0.012589254117941666,0,0.4121338810000452
86,350,FarHighWide_null,0.5,0.25,0.03,0.1,0,99
86,351,FarHighWide,0.5,0.25,0.03,0.00501187233627272,0,0.3764121729982435
86,352,FarLowNarrow,0.1,0.15,0.2,0.025118864315095798,0,0.2932807059987681
86,353,FarLowWide,0.03,0.25,0.5,0.019952623149688785,0,0.36349636199884117
86,354,Constant,0.1,0.1,0.1,0.012589254117941668,1,0.2818944040009228
86,355,Constant,0.1,0.1,0.1,0.009999999999999997,0,0.48820312999669113
86,356,FarLowWide,0.03,0.25,0.5,0.025118864315095787,1,0.5100068300016574
86,357,FarHighWide,0.5,0.25,0.03,0.006309573444801929,0,99
86,358,FarHighNarrow,0.2,0.15,0.1,0.012589254117941668,0,0.3765720119990874
86,359,FarLowWide,0.03,0.25,0.5,0.019952623149688785,0,0.37406709599963506
86,360,FarLowNarrow,0.1,0.15,0.2,0.03162277660168379,1,0.670647236998775
86,361,FarLowWide,0.03,0.25,0.5,0.025118864315095787,0,0.4210296329983976
86,362,ThreeLinesControl_null,0.0,0.0,0.1,0.031622776601683784,1,0.27490835999924457
86,363,FarLowWide,0.03,0.25,0.5,0.03162277660168378,0,0.24119207200055826
86,364,FarHighNarrow,0.2,0.15,0.1,0.01584893192461113,1,0.5116715870026383
86,365,Constant,0.1,0.1,0.1,0.012589254117941668,0,0.4787957769985951
86,366,ThreeLinesControl_null,0.0,0.0,0.1,0.02511886431509579,1,0.425585934000992
86,367,FarLowWide,0.03,0.25,0.5,0.039810717055349706,1,0.4156860559996858
86,368,FarHighNarrow,0.2,0.15,0.1,0.012589254117941668,0,0.5580892139987554
86,369,FarLowWide,0.03,0.25,0.5,0.03162277660168378,1,0.5210744440009876
86,370,Constant,0.1,0.1,0.1,0.01584893192461113,1,0.27951255799780483
86,371,FarLowNarrow,0.1,0.15,0.2,0.025118864315095798,1,0.6132974110005307
86,372,FarLowWide,0.03,0.25,0.5,0.025118864315095787,1,0.42447788400022546
86,373,FarHighWide,0.5,0.25,0.03,0.007943282347242812,1,0.40675652099889703
86,374,FarLowNarrow,0.1,0.15,0.2,0.019952623149688792,1,0.4200326150021283
86,375,Constant,0.1,0.1,0.1,0.012589254117941668,0,0.4429679569984728
86,376,FarLowNarrow,0.1,0.15,0.2,0.01584893192461113,1,0.5039820979982323
86,377,FarHighWide,0.5,0.25,0.03,0.006309573444801929,1,0.37425184400126454
86,378,FarHighWide,0.5,0.25,0.03,0.00501187233627272,1,0.6925571399988257
86,379,FarHighWide,0.5,0.25,0.03,0.00398107170553497,0,99
86,380,FarLowWide,0.03,0.25,0.5,0.019952623149688785,0,0.4571501630016428
86,381,FarLowWide,0.03,0.25,0.5,0.025118864315095787,1,0.4312738150001678
86,382,FarHighWide,0.5,0.25,0.03,0.00501187233627272,0,0.4783165180015203
86,383,ThreeLinesControl,0.0,0.0,0.1,0.015848931924611127,1,0.4249514530019951
86,384,FarLowNarrow,0.1,0.15,0.2,0.012589254117941668,0,99
86,385,FarHighWide,0.5,0.25,0.03,0.006309573444801929,1,0.3705167839980277
86,386,ThreeLinesControl,0.0,0.0,0.1,0.012589254117941666,0,0.3764237190007407
86,387,FarLowWide,0.03,0.25,0.5,0.019952623149688785,0,0.3587238990003243
86,388,ThreeLinesControl,0.0,0.0,0.1,0.015848931924611127,1,0.5550978449973627
86,389,FarHighNarrow,0.2,0.15,0.1,0.01584893192461113,1,0.4468332049982564
86,390,ThreeLinesControl,0.0,0.0,0.1,0.012589254117941666,0,0.46797042899925145
86,391,Constant,0.1,0.1,0.1,0.01584893192461113,0,0.38620178799828864
86,392,FarHighNarrow_null,0.2,0.15,0.1,0.07943282347242814,1,0.3766690219999873
86,393,FarHighWide,0.5,0.25,0.03,0.00501187233627272,0,0.41452189600022393
86,394,FarHighNarrow,0.2,0.15,0.1,0.012589254117941668,0,0.35673379299987573
86,395,Constant,0.1,0.1,0.1,0.019952623149688792,1,0.44309693000104744
86,396,ThreeLinesControl,0.0,0.0,0.1,0.015848931924611127,1,0.7375472189996799
86,397,FarLowNarrow,0.1,0.15,0.2,0.01584893192461113,1,0.4150811289982812
86,398,FarHighWide,0.5,0.25,0.03,0.006309573444801929,1,0.4379427140011103
86,399,FarHighNarrow,0.2,0.15,0.1,0.01584893192461113,0,0.528486145001807
86,400,FarHighWide,0.5,0.25,0.03,0.00501187233627272,0,0.750775287997385
86,401,FarLowNarrow,0.1,0.15,0.2,0.012589254117941668,0,0.377967009000713
86,402,ThreeLinesControl,0.0,0.0,0.1,0.012589254117941666,0,0.3839159599992854
86,403,FarLowWide,0.03,0.25,0.5,0.025118864315095787,0,0.34154990400202223
86,404,FarLowNarrow,0.1,0.15,0.2,0.01584893192461113,1,0.4976117029982561
86,405,FarLowWide,0.03,0.25,0.5,0.03162277660168378,1,0.327237616002094
86,406,Constant,0.1,0.1,0.1,0.01584893192461113,1,0.4375772310013417
86,407,Constant,0.1,0.1,0.1,0.012589254117941668,1,0.515761824000947
86,408,ThreeLinesControl,0.0,0.0,0.1,0.015848931924611127,0,0.6898509460006608
86,409,FarLowWide,0.03,0.25,0.5,0.025118864315095787,1,0.4718985319996136
86,410,Constant,0.1,0.1,0.1,0.009999999999999997,1,0.42208902800120995
86,411,FarLowWide,0.03,0.25,0.5,0.019952623149688785,0,99
86,412,FarLowWide,0.03,0.25,0.5,0.025118864315095787,1,0.5214975140006572
86,413,ThreeLinesControl,0.0,0.0,0.1,0.01995262314968879,1,0.4476865109973005
86,414,FarHighWide,0.5,0.25,0.03,0.006309573444801929,0,0.5746182230031991
86,415,ThreeLinesControl,0.0,0.0,0.1,0.015848931924611127,1,1.050127488997532
86,416,FarLowNarrow,0.1,0.15,0.2,0.012589254117941668,0,0.5759478350009886
86,417,ThreeLinesControl,0.0,0.0,0.1,0.012589254117941666,0,0.45327234900105395
86,418,Constant,0.1,0.1,0.1,0.007943282347242812,1,0.5294551190017955
86,419,FarLowWide,0.03,0.25,0.5,0.019952623149688785,0,0.45443815199905657
86,420,FarLowWide,0.03,0.25,0.5,0.025118864315095787,1,0.4983987790001265
86,421,ThreeLinesControl_null,0.0,0.0,0.1,0.01995262314968879,1,0.5528709420032101
86,422,FarLowNarrow,0.1,0.15,0.2,0.01584893192461113,1,0.4546202310011722
86,423,ThreeLinesControl,0.0,0.0,0.1,0.015848931924611127,1,0.7811761690027197
86,424,ThreeLinesControl,0.0,0.0,0.1,0.012589254117941666,1,0.28335446900018724
86,425,ThreeLinesControl,0.0,0.0,0.1,0.009999999999999995,1,0.5054014260022086
86,426,FarLowNarrow_null,0.1,0.15,0.2,0.015848931924611127,1,0.3591431550012203
86,427,FarLowWide,0.03,0.25,0.5,0.019952623149688785,1,0.5417891680008324
86,428,FarLowWide,0.03,0.25,0.5,0.015848931924611124,1,0.5318216150008084
86,429,Constant,0.1,0.1,0.1,0.006309573444801929,1,0.37859048300015274
86,430,ThreeLinesControl,0.0,0.0,0.1,0.00794328234724281,0,0.34311286299998756
86,431,ThreeLinesControl,0.0,0.0,0.1,0.009999999999999995,1,0.31530870699862135
86,432,Constant,0.1,0.1,0.1,0.00501187233627272,1,0.27323191499817767
86,433,ThreeLinesControl,0.0,0.0,0.1,0.00794328234724281,1,0.4637162309991254
86,434,Constant,0.1,0.1,0.1,0.00398107170553497,0,0.5626899249982671
86,435,FarHighWide,0.5,0.25,0.03,0.007943282347242812,1,0.41688112799965893
86,436,FarHighWide_null,0.5,0.25,0.03,0.1,1,0.47908770000140066
86,437,FarLowNarrow_null,0.1,0.15,0.2,0.012589254117941666,1,0.4511218549996556
86,438,FarHighNarrow_null,0.2,0.15,0.1,0.06309573444801932,1,0.3531911930003844
86,439,FarHighWide,0.5,0.25,0.03,0.006309573444801929,0,0.22349465200022678
86,440,FarLowWide,0.03,0.25,0.5,0.012589254117941663,1,0.43635167499815
86,441,FarHighNarrow,0.2,0.15,0.1,0.019952623149688792,1,0.39443528300034814
86,442,FarHighWide,0.5,0.25,0.03,0.007943282347242812,0,0.36876762700194377
86,443,FarLowWide,0.03,0.25,0.5,0.009999999999999992,0,0.598823120999441
86,444,FarLowNarrow,0.1,0.15,0.2,0.012589254117941668,0,0.4371128740021959
86,445,FarHighNarrow,0.2,0.15,0.1,0.01584893192461113,0,0.41833748699718853
86,446,FarLowWide,0.03,0.25,0.5,0.012589254117941663,0,0.4704764430025534
86,447,FarHighNarrow,0.2,0.15,0.1,0.019952623149688792,0,99
86,448,FarLowWide,0.03,0.25,0.5,0.015848931924611124,1,0.44895082999937586
86,449,FarLowNarrow,0.1,0.15,0.2,0.01584893192461113,1,0.39098509500036016
86,450,ThreeLinesControl,0.0,0.0,0.1,0.0063095734448019285,1,0.4661166849982692
86,451,FarLowWide,0.03,0.25,0.5,0.012589254117941663,1,0.4151013479968242
86,452,FarHighNarrow,0.2,0.15,0.1,0.025118864315095798,1,0.40539881299991976
86,453,FarLowWide,0.03,0.25,0.5,0.009999999999999992,0,0.4425659900007304
86,454,ThreeLinesControl,0.0,0.0,0.1,0.005011872336272719,0,0.6004990660003386
86,455,Constant_null,0.1,0.1,0.1,0.03981071705534971,0,0.5507510750030633
86,456,FarLowWide,0.03,0.25,0.5,0.012589254117941663,1,0.45285442100066575
86,457,Constant,0.1,0.1,0.1,0.00501187233627272,0,0.5540691530004551
86,458,Constant,0.1,0.1,0.1,0.006309573444801929,1,0.6010652100012521
86,459,Constant,0.1,0.1,0.1,0.00501187233627272,1,0.44693933300004574
86,460,FarHighWide,0.5,0.25,0.03,0.009999999999999997,1,0.6536619600010454
86,461,ThreeLinesControl,0.0,0.0,0.1,0.0063095734448019285,1,0.578857574997528
86,462,FarLowWide,0.03,0.25,0.5,0.009999999999999992,0,0.4488703889983299
86,463,Constant,0.1,0.1,0.1,0.00398107170553497,0,0.4789438700026949
86,464,FarLowWide,0.03,0.25,0.5,0.012589254117941663,0,0.5541321740020066
86,465,FarHighNarrow,0.2,0.15,0.1,0.019952623149688792,0,0.8090434590012592
86,466,FarLowWide,0.03,0.25,0.5,0.015848931924611124,0,0.4990721410031256
86,467,FarHighWide,0.5,0.25,0.03,0.007943282347242812,1,0.7296759019991441
86,468,FarLowNarrow,0.1,0.15,0.2,0.012589254117941668,0,0.527570869999181
86,469,Constant,0.1,0.1,0.1,0.00501187233627272,0,0.43702930599829415
86,470,FarHighNarrow,0.2,0.15,0.1,0.025118864315095798,0,0.3389597079985833
86,471,FarLowNarrow,0.1,0.15,0.2,0.01584893192461113,0,0.6242008999979589
86,472,FarLowWide_null,0.03,0.25,0.5,0.031622776601683784,1,0.34205933500197716
86,473,FarLowWide,0.03,0.25,0.5,0.019952623149688785,0,0.31652072699944256
86,474,FarLowNarrow,0.1,0.15,0.2,0.019952623149688792,0,0.20282806400064146
86,475,FarLowWide,0.03,0.25,0.5,0.025118864315095787,0,0.47292803399977856
86,476,FarHighNarrow,0.2,0.15,0.1,0.03162277660168379,1,0.39237316500293673
86,477,FarHighWide,0.5,0.25,0.03,0.006309573444801929,1,0.5477639219971024
86,478,FarLowWide,0.03,0.25,0.5,0.03162277660168378,1,0.39416838100078166
86,479,FarHighNarrow,0.2,0.15,0.1,0.025118864315095798,1,0.384077664999495
86,480,FarHighWide,0.5,0.25,0.03,0.00501187233627272,1,0.403567961002409
86,481,ThreeLinesControl,0.0,0.0,0.1,0.005011872336272719,0,0.5298338669999794
86,482,FarLowWide,0.03,0.25,0.5,0.025118864315095787,1,0.4960029489993758
86,483,FarLowWide,0.03,0.25,0.5,0.019952623149688785,0,0.35900411500188056
86,484,FarHighWide,0.5,0.25,0.03,0.00398107170553497,0,0.4213348519988358
86,485,ThreeLinesControl,0.0,0.0,0.1,0.0063095734448019285,0,0.3792791980013135
86,486,FarLowNarrow,0.1,0.15,0.2,0.025118864315095798,0,0.28744691899919417
86,487,FarHighNarrow,0.2,0.15,0.1,0.019952623149688792,0,0.253276620998804
86,488,ThreeLinesControl,0.0,0.0,0.1,0.00794328234724281,0,0.2597397440003988
86,489,FarLowWide,0.03,0.25,0.5,0.025118864315095787,0,0.33491309199962416
86,490,Constant,0.1,0.1,0.1,0.006309573444801929,0,0.3730104450005456
86,491,FarLowNarrow,0.1,0.15,0.2,0.03162277660168379,1,0.43410675899940543
86,492,FarHighNarrow,0.2,0.15,0.1,0.025118864315095798,1,0.32532132100095623
86,493,FarHighWide,0.5,0.25,0.03,0.00501187233627272,1,0.39607102799709537
86,494,FarLowNarrow,0.1,0.15,0.2,0.025118864315095798,0,99
86,495,FarHighNarrow,0.2,0.15,0.1,0.019952623149688792,1,0.3345089730028121
86,496,FarHighWide,0.5,0.25,0.03,0.00398107170553497,1,0.5647281649980869
86,497,Constant,0.1,0.1,0.1,0.007943282347242812,0,0.5152080949992524
86,498,FarHighNarrow_null,0.2,0.15,0.1,0.05011872336272722,1,0.43306880200179876
86,499,FarHighWide,0.5,0.25,0.03,0.0031622776601683772,0,0.4794835319989943
86,500,ThreeLinesControl,0.0,0.0,0.1,0.009999999999999995,1,0.5097526859972277
86,501,FarHighNarrow,0.2,0.15,0.1,0.01584893192461113,1,0.4367145510004775
86,502,FarHighWide,0.5,0.25,0.03,0.00398107170553497,0,0.5310629980012891
86,503,FarHighNarrow,0.2,0.15,0.1,0.012589254117941668,0,0.4770659300011175
86,504,FarLowWide,0.03,0.25,0.5,0.03162277660168378,0,0.4750847710020025
86,505,FarHighWide,0.5,0.25,0.03,0.00501187233627272,0,99
86,506,FarLowNarrow,0.1,0.15,0.2,0.03162277660168379,1,0.532469398000103
86,507,FarLowWide,0.03,0.25,0.5,0.039810717055349706,1,0.3866508760002034
86,508,FarHighWide,0.5,0.25,0.03,0.006309573444801929,0,0.58160956500069
86,509,FarLowNarrow,0.1,0.15,0.2,0.025118864315095798,1,0.47607129300013185
86,510,ThreeLinesControl,0.0,0.0,0.1,0.00794328234724281,1,0.40893189500275184
86,511,FarHighNarrow,0.2,0.15,0.1,0.01584893192461113,1,0.3271947089997411
86,512,FarLowNarrow,0.1,0.15,0.2,0.019952623149688792,1,0.33347549799873377
86,513,FarHighNarrow,0.2,0.15,0.1,0.012589254117941668,1,0.3153874170020572
86,514,FarHighWide,0.5,0.25,0.03,0.007943282347242812,1,0.44159514200146077
86,515,FarLowWide,0.03,0.25,0.5,0.03162277660168378,1,0.3907290470015141
86,516,FarLowNarrow_null,0.1,0.15,0.2,0.009999999999999995,1,0.7412589980012854
86,517,FarLowWide,0.03,0.25,0.5,0.025118864315095787,1,0.4444844429999648
86,518,FarLowNarrow,0.1,0.15,0.2,0.01584893192461113,0,99
86,519,ThreeLinesControl_null,0.0,0.0,0.1,0.015848931924611127,0,99
86,520,ThreeLinesControl,0.0,0.0,0.1,0.0063095734448019285,0,0.4045016139971267
86,521,ThreeLinesControl,0.0,0.0,0.1,0.00794328234724281,0,0.43966299899693695
86,522,FarHighNarrow,0.2,0.15,0.1,0.009999999999999997,0,0.5256501880030555
86,523,ThreeLinesControl,0.0,0.0,0.1,0.009999999999999995,0,0.4279974199998833
86,524,FarHighNarrow,0.2,0.15,0.1,0.012589254117941668,1,0.5908436230020016
86,525,FarHighWide,0.5,0.25,0.03,0.006309573444801929,0,99
86,526,FarLowNarrow,0.1,0.15,0.2,0.019952623149688792,0,0.5155716839981324
86,527,ThreeLinesControl_null,0.0,0.0,0.1,0.01995262314968879,1,0.5133977780023997
86,528,FarHighWide,0.5,0.25,0.03,0.007943282347242812,1,0.5345672930016008
86,529,FarHighWide_null,0.5,0.25,0.03,0.07943282347242815,1,0.4602117740032554
86,530,FarLowNarrow,0.1,0.15,0.2,0.025118864315095798,0,0.275114460997429
86,531,FarHighNarrow,0.2,0.15,0.1,0.009999999999999997,0,0.46515747100056615
86,532,FarHighWide,0.5,0.25,0.03,0.006309573444801929,0,0.4556510389993491
86,533,Constant,0.1,0.1,0.1,0.009999999999999997,0,0.4627128960019036
86,534,ThreeLinesControl,0.0,0.0,0.1,0.012589254117941666,0,0.41264975399826653
86,535,Constant,0.1,0.1,0.1,0.012589254117941668,0,0.3687617510004202
86,536,FarHighWide_null,0.5,0.25,0.03,0.06309573444801932,1,0.4549793010010035
86,537,FarHighNarrow,0.2,0.15,0.1,0.012589254117941668,1,0.6531926329989801
86,538,FarLowNarrow,0.1,0.15,0.2,0.03162277660168379,1,0.44826961500075413
86,539,FarHighWide,0.5,0.25,0.03,0.007943282347242812,0,0.39814504999958444
86,540,Constant,0.1,0.1,0.1,0.01584893192461113,1,0.5537551240013272
86,541,FarHighNarrow,0.2,0.15,0.1,0.009999999999999997,0,0.47165786199911963
86,542,FarHighWide,0.5,0.25,0.03,0.009999999999999997,0,0.508967826001026
86,543,FarHighNarrow,0.2,0.15,0.1,0.012589254117941668,0,0.4346568789987941
86,544,Constant,0.1,0.1,0.1,0.012589254117941668,0,0.369019189998653
86,545,Constant,0.1,0.1,0.1,0.01584893192461113,1,0.5191490930010332
86,546,Constant,0.1,0.1,0.1,0.012589254117941668,0,0.45339343399973586
86,547,FarHighWide,0.5,0.25,0.03,0.012589254117941668,0,0.49182930100141675
86,548,FarHighWide,0.5,0.25,0.03,0.01584893192461113,0,0.70497339099893
86,549,FarHighWide_null,0.5,0.25,0.03,0.05011872336272722,1,0.4239845830015838
86,550,FarLowNarrow,0.1,0.15,0.2,0.025118864315095798,1,0.5023413929993694
86,551,FarHighNarrow_null,0.2,0.15,0.1,0.03981071705534971,1,0.46615700800248305
86,552,Constant,0.1,0.1,0.1,0.01584893192461113,0,0.4000476190012705
86,553,Constant,0.1,0.1,0.1,0.019952623149688792,0,0.36517552400255227
86,554,FarHighWide,0.5,0.25,0.03,0.019952623149688792,0,0.40140694599904236
86,555,FarLowNarrow,0.1,0.15,0.2,0.019952623149688792,0,0.31075533900002483
86,556,FarHighNarrow,0.2,0.15,0.1,0.01584893192461113,0,0.2923990210001648
86,557,FarLowNarrow,0.1,0.15,0.2,0.025118864315095798,0,0.2810692179991747
86,558,Constant,0.1,0.1,0.1,0.025118864315095798,1,0.589876024001569
86,559,FarHighWide,0.5,0.25,0.03,0.025118864315095798,0,0.8445699299991247
86,560,Constant,0.1,0.1,0.1,0.019952623149688792,1,0.5454893060014001
86,561,FarHighNarrow,0.2,0.15,0.1,0.019952623149688792,0,0.4873869650000415
86,562,FarLowNarrow_null,0.1,0.15,0.2,0.00794328234724281,1,0.42176164299962693
86,563,FarHighNarrow,0.2,0.15,0.1,0.025118864315095798,0,0.3478694330005965
86,564,ThreeLinesControl,0.0,0.0,0.1,0.015848931924611127,0,0.32989348100090865
86,565,FarHighNarrow,0.2,0.15,0.1,0.03162277660168379,1,0.43245516900060466
86,566,Constant,0.1,0.1,0.1,0.01584893192461113,0,0.622795885999949
86,567,Constant,0.1,0.1,0.1,0.019952623149688792,0,0.6506087369998568
86,568,FarHighNarrow,0.2,0.15,0.1,0.025118864315095798,1,0.46446297299917205
86,569,ThreeLinesControl_null,0.0,0.0,0.1,0.015848931924611127,0,0.39082816600057413
86,570,FarHighNarrow,0.2,0.15,0.1,0.019952623149688792,0,0.48998921400198014
86,571,FarHighNarrow,0.2,0.15,0.1,0.025118864315095798,1,0.4710816499973589
86,572,Constant,0.1,0.1,0.1,0.025118864315095798,1,0.43702122399918153
86,573,FarHighWide,0.5,0.25,0.03,0.03162277660168379,1,0.5774844640000083
86,574,FarHighNarrow,0.2,0.15,0.1,0.019952623149688792,1,0.3514313109990326
86,575,FarLowWide,0.03,0.25,0.5,0.019952623149688785,0,0.38929380800254876
86,576,Constant,0.1,0.1,0.1,0.019952623149688792,0,0.40367227899696445
86,577,Constant,0.1,0.1,0.1,0.025118864315095798,0,0.33673843900032807
86,578,FarHighNarrow,0.2,0.15,0.1,0.01584893192461113,1,0.31943297299949336
86,579,FarHighWide,0.5,0.25,0.03,0.025118864315095798,0,0.5253089430007094
86,580,Constant,0.1,0.1,0.1,0.03162277660168379,0,0.44354225200004294
86,581,ThreeLinesControl_null,0.0,0.0,0.1,0.01995262314968879,1,0.3698726799993892
86,582,FarHighNarrow,0.2,0.15,0.1,0.012589254117941668,0,0.3931546999992861
86,583,ThreeLinesControl,0.0,0.0,0.1,0.01995262314968879,0,0.3977047999978822
86,584,FarHighWide,0.5,0.25,0.03,0.03162277660168379,1,0.36881408999761334
86,585,ThreeLinesControl_null,0.0,0.0,0.1,0.015848931924611127,1,0.4787256449999404
86,586,ThreeLinesControl_null,0.0,0.0,0.1,0.012589254117941666,1,0.41044294300081674
86,587,FarLowNarrow,0.1,0.15,0.2,0.03162277660168379,1,0.47247955599959823
86,588,FarHighNarrow,0.2,0.15,0.1,0.01584893192461113,1,0.3507126820004487
86,589,Constant,0.1,0.1,0.1,0.03981071705534973,0,0.37127634399803355
86,590,FarHighWide,0.5,0.25,0.03,0.025118864315095798,0,0.8492914359994757
86,591,FarHighNarrow,0.2,0.15,0.1,0.012589254117941668,1,0.3667686769986176
86,592,FarHighWide_null,0.5,0.25,0.03,0.03981071705534971,1,0.42957484499856946
86,593,Constant,0.1,0.1,0.1,0.050118723362727234,1,0.4102643500009435
86,594,FarHighNarrow,0.2,0.15,0.1,0.009999999999999997,0,0.41642047999994247
86,595,Constant,0.1,0.1,0.1,0.03981071705534973,0,0.4387196269999549
86,596,FarHighNarrow_null,0.2,0.15,0.1,0.031622776601683784,1,0.6919506900012493
86,597,FarHighNarrow,0.2,0.15,0.1,0.012589254117941668,0,0.4178015340003185
86,598,FarLowNarrow_null,0.1,0.15,0.2,0.0063095734448019285,1,0.27381199699811987
86,599,FarHighWide,0.5,0.25,0.03,0.03162277660168379,1,0.6329248020010709
86,600,Constant,0.1,0.1,0.1,0.050118723362727234,1,0.4104372309993778
86,601,FarLowNarrow,0.1,0.15,0.2,0.025118864315095798,1,0.19162526999934926
86,602,ThreeLinesControl,0.0,0.0,0.1,0.025118864315095794,1,0.5894381690013688
86,603,Constant,0.1,0.1,0.1,0.03981071705534973,1,0.35606179000023985
86,604,FarLowWide,0.03,0.25,0.5,0.025118864315095787,1,0.7701534450025065
86,605,FarLowNarrow,0.1,0.15,0.2,0.019952623149688792,1,0.43213786100022844
86,606,ThreeLinesControl,0.0,0.0,0.1,0.01995262314968879,1,0.33336249599960865
86,607,FarHighWide,0.5,0.25,0.03,0.025118864315095798,1,0.4274926059988502
86,608,FarLowWide,0.03,0.25,0.5,0.019952623149688785,1,0.5790437819996441
86,609,FarHighWide,0.5,0.25,0.03,0.019952623149688792,1,0.4138307060020452
86,610,ThreeLinesControl,0.0,0.0,0.1,0.015848931924611127,1,0.46814766700117616
86,611,FarHighWide,0.5,0.25,0.03,0.01584893192461113,0,0.6711929830016743
86,612,FarHighWide,0.5,0.25,0.03,0.019952623149688792,1,1.060402362003515
86,613,FarLowNarrow,0.1,0.15,0.2,0.01584893192461113,0,99
86,614,ThreeLinesControl,0.0,0.0,0.1,0.012589254117941666,1,0.9358303959998011
86,615,FarHighNarrow,0.2,0.15,0.1,0.01584893192461113,0,99
86,616,Constant,0.1,0.1,0.1,0.03162277660168379,0,99
86,617,FarHighNarrow,0.2,0.15,0.1,0.019952623149688792,0,99
86,618,FarLowNarrow,0.1,0.15,0.2,0.019952623149688792,0,99
86,619,FarLowWide,0.03,0.25,0.5,0.015848931924611124,1,0.49244255400117254
86,620,FarHighNarrow,0.2,0.15,0.1,0.025118864315095798,1,0.2984213029994862
86,621,Constant,0.1,0.1,0.1,0.03981071705534973,1,0.31391957300002105
86,622,FarHighWide,0.5,0.25,0.03,0.01584893192461113,1,0.42971540299913613
86,623,FarHighNarrow,0.2,0.15,0.1,0.019952623149688792,1,0.37443393300054595
86,624,FarLowWide,0.03,0.25,0.5,0.012589254117941663,0,0.41190829100014525
86,625,FarLowNarrow,0.1,0.15,0.2,0.025118864315095798,0,0.4301144189994375
86,626,ThreeLinesControl,0.0,0.0,0.1,0.009999999999999995,0,0.5077070109982742
86,627,FarLowWide,0.03,0.25,0.5,0.015848931924611124,0,0.4261611660003837
86,628,Constant,0.1,0.1,0.1,0.03162277660168379,1,0.5653613610011234
86,629,FarLowNarrow,0.1,0.15,0.2,0.03162277660168379,1,0.34804671299934853
86,630,FarHighNarrow,0.2,0.15,0.1,0.01584893192461113,1,0.3368812019980396
86,631,ThreeLinesControl,0.0,0.0,0.1,0.012589254117941666,0,0.44622731900017243
86,632,Constant,0.1,0.1,0.1,0.025118864315095798,0,0.39589764699849184
86,633,FarHighNarrow,0.2,0.15,0.1,0.012589254117941668,0,0.4901948429978802
86,634,FarLowNarrow,0.1,0.15,0.2,0.025118864315095798,0,0.41648909200011985
86,635,FarLowNarrow,0.1,0.15,0.2,0.03162277660168379,1,0.4546820260002278
86,636,ThreeLinesControl,0.0,0.0,0.1,0.015848931924611127,1,0.5489671830000589
86,637,ThreeLinesControl,0.0,0.0,0.1,0.012589254117941666,0,0.4918889440014027
86,638,Constant,0.1,0.1,0.1,0.03162277660168379,1,0.5383449870023469
86,639,FarLowWide,0.03,0.25,0.5,0.019952623149688785,0,0.4312251829978777
86,640,FarHighNarrow,0.2,0.15,0.1,0.01584893192461113,0,0.7736620659998152
86,641,FarLowNarrow,0.1,0.15,0.2,0.025118864315095798,1,0.44064870000147494
86,642,Constant,0.1,0.1,0.1,0.025118864315095798,1,0.7586069790013426
86,643,FarHighNarrow,0.2,0.15,0.1,0.019952623149688792,1,0.469026684997516
86,644,FarLowWide,0.03,0.25,0.5,0.025118864315095787,0,0.5121078130032402
86,645,Constant,0.1,0.1,0.1,0.019952623149688792,0,0.5651327969972044
86,646,ThreeLinesControl_null,0.0,0.0,0.1,0.009999999999999995,1,0.4512752939990605
86,647,FarHighWide,0.5,0.25,0.03,0.012589254117941668,0,0.6644487480007228
86,648,FarHighWide,0.5,0.25,0.03,0.01584893192461113,1,0.5901772969991725
86,649,ThreeLinesControl,0.0,0.0,0.1,0.015848931924611127,0,0.4928038289981487
86,650,Constant,0.1,0.1,0.1,0.025118864315095798,1,0.4749724260000221
86,651,FarHighWide,0.5,0.25,0.03,0.012589254117941668,0,0.4568584879998525
86,652,FarLowNarrow,0.1,0.15,0.2,0.019952623149688792,1,0.59922299399841
86,653,FarLowNarrow,0.1,0.15,0.2,0.01584893192461113,0,0.4295989450001798
86,654,Constant,0.1,0.1,0.1,0.019952623149688792,1,0.3875377300028049
86,655,Constant,0.1,0.1,0.1,0.01584893192461113,1,0.3687652970002091
86,656,ThreeLinesControl,0.0,0.0,0.1,0.01995262314968879,1,0.358723055000155
86,657,FarHighNarrow,0.2,0.15,0.1,0.01584893192461113,0,0.5059201420008321
86,658,FarHighNarrow,0.2,0.15,0.1,0.019952623149688792,0,0.5511962629971094
86,659,FarLowWide,0.03,0.25,0.5,0.03162277660168378,1,0.48525248399892007
86,660,FarHighWide,0.5,0.25,0.03,0.01584893192461113,0,0.5842965890005871
86,661,Constant,0.1,0.1,0.1,0.012589254117941668,0,0.43849713300005533
86,662,ThreeLinesControl,0.0,0.0,0.1,0.015848931924611127,1,0.47640644700004486
86,663,FarHighNarrow,0.2,0.15,0.1,0.025118864315095798,1,0.3778083780016459
86,664,Constant_null,0.1,0.1,0.1,0.05011872336272721,1,0.46385619699867675
86,665,Constant,0.1,0.1,0.1,0.01584893192461113,0,0.4379473160006455
86,666,FarHighNarrow,0.2,0.15,0.1,0.019952623149688792,1,0.644153395001922
86,667,FarHighNarrow,0.2,0.15,0.1,0.01584893192461113,0,0.6185131720012578
86,668,FarHighWide,0.5,0.25,0.03,0.019952623149688792,1,0.42461703499793657
86,669,FarHighNarrow,0.2,0.15,0.1,0.019952623149688792,1,0.4629753669978527
86,670,FarLowWide,0.03,0.25,0.5,0.025118864315095787,1,0.49400151900044875
86,671,FarLowWide_null,0.03,0.25,0.5,0.02511886431509579,1,0.4738841889993637
86,672,Constant,0.1,0.1,0.1,0.019952623149688792,0,0.41604163800002425
86,673,FarLowWide,0.03,0.25,0.5,0.019952623149688785,0,0.40645442299864953
86,674,FarLowNarrow,0.1,0.15,0.2,0.019952623149688792,0,0.5201064450011472
86,675,FarHighWide,0.5,0.25,0.03,0.01584893192461113,1,0.4466242060007062
86,676,ThreeLinesControl,0.0,0.0,0.1,0.012589254117941666,0,0.48196348900091834
86,677,FarHighNarrow,0.2,0.15,0.1,0.01584893192461113,0,0.44802040599824977
86,678,FarLowNarrow,0.1,0.15,0.2,0.025118864315095798,1,0.46202974200059543
86,679,FarLowNarrow,0.1,0.15,0.2,0.019952623149688792,1,0.4352365419981652
86,680,FarLowNarrow,0.1,0.15,0.2,0.01584893192461113,0,0.465505584001221
86,681,FarHighWide,0.5,0.25,0.03,0.012589254117941668,0,0.3994672509979864
86,682,FarHighWide_null,0.5,0.25,0.03,0.031622776601683784,1,0.47778056700190064
86,683,Constant,0.1,0.1,0.1,0.025118864315095798,1,0.47577301699857344
86,684,FarHighNarrow,0.2,0.15,0.1,0.019952623149688792,1,0.5944580960021995
86,685,ThreeLinesControl,0.0,0.0,0.1,0.015848931924611127,1,0.5603655839986459
86,686,FarLowNarrow,0.1,0.15,0.2,0.019952623149688792,0,0.43142840300060925
86,687,FarHighWide_null,0.5,0.25,0.03,0.02511886431509579,0,0.35446525600127643
86,688,ThreeLinesControl,0.0,0.0,0.1,0.012589254117941666,0,0.4244280790007906
86,689,ThreeLinesControl,0.0,0.0,0.1,0.015848931924611127,0,0.42274266299864394
86,690,FarHighWide,0.5,0.25,0.03,0.01584893192461113,0,0.4738624120000168
86,691,FarHighNarrow,0.2,0.15,0.1,0.01584893192461113,1,0.40017138499752036
86,692,Constant,0.1,0.1,0.1,0.019952623149688792,1,0.5660420410022198
86,693,FarHighWide,0.5,0.25,0.03,0.019952623149688792,0,0.529390882998996
86,694,ThreeLinesControl,0.0,0.0,0.1,0.01995262314968879,0,0.44743206600105623
86,695,FarHighNarrow,0.2,0.15,0.1,0.012589254117941668,0,0.48465548300009686
86,696,ThreeLinesControl,0.0,0.0,0.1,0.025118864315095794,0,0.45071062200076994
86,697,ThreeLinesControl,0.0,0.0,0.1,0.031622776601683784,1,0.5450119349989109
86,698,FarLowNarrow,0.1,0.15,0.2,0.025118864315095798,1,0.45508668800175656
86,699,FarHighWide,0.5,0.25,0.03,0.025118864315095798,0,0.5400035390011908
86,700,FarHighNarrow,0.2,0.15,0.1,0.01584893192461113,0,0.45806756199817755
86,701,ThreeLinesControl,0.0,0.0,0.1,0.02511886431509579,1,0.5057078350000666
86,702,FarLowWide_null,0.03,0.25,0.5,0.01995262314968879,1,0.5679494800024258
86,703,Constant,0.1,0.1,0.1,0.01584893192461113,1,0.638919935998274
86,704,ThreeLinesControl,0.0,0.0,0.1,0.01995262314968879,0,0.4029390869982308
86,705,FarHighWide,0.5,0.25,0.03,0.03162277660168379,1,0.3921920089997002
86,706,FarHighNarrow,0.2,0.15,0.1,0.019952623149688792,1,0.5155936060000386
86,707,FarHighWide,0.5,0.25,0.03,0.025118864315095798,1,0.9133324470021762
86,708,FarLowWide,0.03,0.25,0.5,0.025118864315095787,0,0.37506475199916167
86,709,FarLowWide,0.03,0.25,0.5,0.03162277660168378,1,0.47477847499976633
86,710,FarLowNarrow,0.1,0.15,0.2,0.019952623149688792,1,0.40855368900156463
86,711,FarLowWide_null,0.03,0.25,0.5,0.015848931924611127,1,0.4385987669993483
86,712,FarLowWide,0.03,0.25,0.5,0.025118864315095787,0,0.4210446140023123
86,713,FarHighNarrow,0.2,0.15,0.1,0.01584893192461113,1,0.45079944700046326
86,714,FarLowWide,0.03,0.25,0.5,0.03162277660168378,1,0.36082201399767655
86,715,FarLowNarrow,0.1,0.15,0.2,0.01584893192461113,0,99
86,716,FarLowWide,0.03,0.25,0.5,0.025118864315095787,0,0.44466168800136074
86,717,FarLowNarrow,0.1,0.15,0.2,0.019952623149688792,0,0.34728794699913124
86,718,FarHighNarrow,0.2,0.15,0.1,0.012589254117941668,0,0.3302785870000662
86,719,FarLowNarrow,0.1,0.15,0.2,0.025118864315095798,1,0.3761956829985138
86,720,FarLowNarrow,0.1,0.15,0.2,0.019952623149688792,0,0.5515093360008905
86,721,FarLowNarrow,0.1,0.15,0.2,0.025118864315095798,0,0.3246375149974483
86,722,FarHighNarrow,0.2,0.15,0.1,0.01584893192461113,0,0.3464385789993685
86,723,FarLowNarrow,0.1,0.15,0.2,0.03162277660168379,1,0.28119754399813246
86,724,Constant,0.1,0.1,0.1,0.012589254117941668,1,0.27224699599901214
86,725,FarHighNarrow,0.2,0.15,0.1,0.019952623149688792,1,0.5666221419996873
86,726,FarLowNarrow,0.1,0.15,0.2,0.025118864315095798,1,0.44479408400002285
86,727,Constant,0.1,0.1,0.1,0.009999999999999997,0,99
86,728,Constant,0.1,0.1,0.1,0.012589254117941668,0,99
86,729,FarHighWide,0.5,0.25,0.03,0.019952623149688792,1,0.31381955899996683
86,730,FarHighNarrow,0.2,0.15,0.1,0.01584893192461113,1,0.5601166820015351
86,731,FarHighNarrow_null,0.2,0.15,0.1,0.02511886431509579,1,0.6593686470005196
86,732,FarLowWide,0.03,0.25,0.5,0.03162277660168378,1,0.3753634280001279
86,733,FarHighWide_null,0.5,0.25,0.03,0.031622776601683784,1,0.5495282679985394
86,734,ThreeLinesControl,0.0,0.0,0.1,0.025118864315095794,0,0.6196623579999141
86,735,FarHighWide,0.5,0.25,0.03,0.01584893192461113,0,0.6006826390002971
86,736,FarHighNarrow,0.2,0.15,0.1,0.012589254117941668,0,99
86,737,ThreeLinesControl_null,0.0,0.0,0.1,0.00794328234724281,1,0.4209284150019812
86,738,FarLowNarrow_null,0.1,0.15,0.2,0.005011872336272719,1,0.21928965800179867
86,739,FarLowWide_null,0.03,0.25,0.5,0.012589254117941666,1,0.3214284030000272
86,740,ThreeLinesControl,0.0,0.0,0.1,0.031622776601683784,1,0.44010940400039544
86,741,Constant,0.1,0.1,0.1,0.01584893192461113,1,0.5902167729982466
86,742,FarHighWide,0.5,0.25,0.03,0.019952623149688792,0,0.40530197200132534
86,743,FarHighWide,0.5,0.25,0.03,0.025118864315095798,0,0.41599421800128766
86,744,FarLowWide_null,0.03,0.25,0.5,0.009999999999999995,1,0.38217954200081294
86,745,ThreeLinesControl,0.0,0.0,0.1,0.02511886431509579,0,0.32439377899936517
86,746,FarHighNarrow,0.2,0.15,0.1,0.01584893192461113,0,0.45546179200027836
86,747,FarLowNarrow,0.1,0.15,0.2,0.019952623149688792,0,0.3497179940022761
86,748,Constant,0.1,0.1,0.1,0.012589254117941668,0,0.3616139049991034
86,749,FarHighWide_null,0.5,0.25,0.03,0.02511886431509579,1,0.4145893469976727
86,750,FarHighNarrow,0.2,0.15,0.1,0.019952623149688792,1,0.5645247030006431
86,751,Constant,0.1,0.1,0.1,0.01584893192461113,1,0.562935734000348
86,752,ThreeLinesControl,0.0,0.0,0.1,0.031622776601683784,1,0.38538240599882556
86,753,FarLowNarrow,0.1,0.15,0.2,0.025118864315095798,0,0.5274839580015396
86,754,ThreeLinesControl,0.0,0.0,0.1,0.02511886431509579,0,0.38173455099968123
86,755,FarHighWide,0.5,0.25,0.03,0.03162277660168379,1,0.5147055659981561
86,756,ThreeLinesControl,0.0,0.0,0.1,0.031622776601683784,1,0.4967778760001238
86,757,ThreeLinesControl,0.0,0.0,0.1,0.02511886431509579,1,0.47924118200171506
86,758,FarHighWide,0.5,0.25,0.03,0.025118864315095798,0,0.5091500989983615
86,759,FarLowWide,0.03,0.25,0.5,0.025118864315095787,0,0.4572419350006385
86,760,FarHighNarrow,0.2,0.15,0.1,0.01584893192461113,1,0.6073582540011557
86,761,FarLowNarrow,0.1,0.15,0.2,0.03162277660168379,1,0.27757478300190996
86,762,FarLowWide,0.03,0.25,0.5,0.03162277660168378,0,0.4970767490012804
86,763,FarHighNarrow,0.2,0.15,0.1,0.012589254117941668,0,0.6620548620012414
86,764,FarLowNarrow,0.1,0.15,0.2,0.025118864315095798,0,0.39592662599898176
86,765,FarLowWide,0.03,0.25,0.5,0.039810717055349706,1,0.5205695020013081
86,766,FarLowWide,0.03,0.25,0.5,0.03162277660168378,1,0.3423945789982099
86,767,ThreeLinesControl,0.0,0.0,0.1,0.01995262314968879,1,0.5005477599988808
86,768,FarHighWide_null,0.5,0.25,0.03,0.01995262314968879,0,0.5306143279995013
86,769,FarHighNarrow_null,0.2,0.15,0.1,0.01995262314968879,1,0.44895592000102624
86,770,FarLowNarrow,0.1,0.15,0.2,0.03162277660168379,1,0.5588598049980646
86,771,ThreeLinesControl,0.0,0.0,0.1,0.015848931924611127,0,99
86,772,ThreeLinesControl,0.0,0.0,0.1,0.01995262314968879,0,0.468417068997951
86,773,FarLowNarrow,0.1,0.15,0.2,0.025118864315095798,1,0.531093753001187
86,774,FarLowNarrow,0.1,0.15,0.2,0.019952623149688792,0,0.5131614649981202
86,775,ThreeLinesControl,0.0,0.0,0.1,0.025118864315095794,1,0.6321563629971934
86,776,Constant,0.1,0.1,0.1,0.012589254117941668,1,0.5705809720020625
86,777,FarLowNarrow,0.1,0.15,0.2,0.025118864315095798,1,0.5119045209976321
86,778,ThreeLinesControl,0.0,0.0,0.1,0.01995262314968879,0,0.45216129700202146
86,779,FarLowNarrow,0.1,0.15,0.2,0.019952623149688792,1,0.4418213110002398
86,780,FarLowNarrow_null,0.1,0.15,0.2,0.00398107170553497,1,0.4394679780016304
86,781,ThreeLinesControl,0.0,0.0,0.1,0.025118864315095794,0,0.3875746869998693
86,782,Constant,0.1,0.1,0.1,0.009999999999999997,1,0.4736281039986352
86,783,ThreeLinesControl_null,0.0,0.0,0.1,0.0063095734448019285,1,0.5839487299999746
86,784,FarLowNarrow,0.1,0.15,0.2,0.01584893192461113,0,0.5343543810013216
86,785,FarLowWide,0.03,0.25,0.5,0.025118864315095787,1,0.46813895300147124
86,786,FarLowNarrow,0.1,0.15,0.2,0.019952623149688792,0,0.5062979859976622
86,787,FarHighWide,0.5,0.25,0.03,0.03162277660168379,1,0.6097700819991587
86,788,FarHighWide,0.5,0.25,0.03,0.025118864315095798,1,0.39885605400195345
86,789,ThreeLinesControl_null,0.0,0.0,0.1,0.005011872336272719,0,0.3158288739978161
86,790,FarLowNarrow,0.1,0.15,0.2,0.025118864315095798,1,0.5378734719997738
86,791,FarHighNarrow,0.2,0.15,0.1,0.01584893192461113,1,0.4162319490023947
86,792,FarLowWide,0.03,0.25,0.5,0.019952623149688785,1,0.49918657000307576
86,793,Constant,0.1,0.1,0.1,0.007943282347242812,0,0.5284101299985196
86,794,Constant,0.1,0.1,0.1,0.009999999999999997,0,0.4682911919990147
86,795,ThreeLinesControl,0.0,0.0,0.1,0.031622776601683784,0,0.5777327169998898
86,796,FarHighNarrow,0.2,0.15,0.1,0.012589254117941668,0,0.4316470929989009
86,797,FarLowNarrow_null,0.1,0.15,0.2,0.0031622776601683772,0,0.37209556800007704
86,798,ThreeLinesControl,0.0,0.0,0.1,0.03981071705534971,1,0.46604197499982547
86,799,FarLowWide,0.03,0.25,0.5,0.015848931924611124,0,0.49602160999711487
86,800,Constant,0.1,0.1,0.1,0.012589254117941668,0,0.5902582969974901
86,801,FarLowWide,0.03,0.25,0.5,0.019952623149688785,0,0.3165855690021999
86,802,FarHighWide_null,0.5,0.25,0.03,0.025118864315095794,1,0.45097297100073774
86,803,FarHighWide,0.5,0.25,0.03,0.019952623149688792,0,0.5287302260003344
86,804,FarLowNarrow,0.1,0.15,0.2,0.019952623149688792,0,0.4068939719982154
86,805,FarLowNarrow,0.1,0.15,0.2,0.025118864315095798,1,0.21984026499922038
86,806,Constant,0.1,0.1,0.1,0.01584893192461113,1,0.45122950299992226
86,807,ThreeLinesControl,0.0,0.0,0.1,0.031622776601683784,1,0.3523807609999494
86,808,FarHighNarrow,0.2,0.15,0.1,0.01584893192461113,1,0.3314930310007185
86,809,ThreeLinesControl,0.0,0.0,0.1,0.02511886431509579,0,0.43372107300092466
86,810,ThreeLinesControl,0.0,0.0,0.1,0.031622776601683784,0,0.45574023600056535
86,811,FarHighNarrow,0.2,0.15,0.1,0.012589254117941668,0,0.49095420600133366
86,812,FarLowNarrow,0.1,0.15,0.2,0.019952623149688792,0,0.6011601450009039
86,813,FarHighNarrow,0.2,0.15,0.1,0.01584893192461113,0,0.637254296001629
86,814,FarHighWide,0.5,0.25,0.03,0.025118864315095798,0,0.6434910569987551
86,815,FarLowWide,0.03,0.25,0.5,0.025118864315095787,0,0.5133637780018034
86,816,FarLowWide,0.03,0.25,0.5,0.03162277660168378,0,0.5915440399985528
86,817,FarLowWide,0.03,0.25,0.5,0.039810717055349706,0,0.4140326680026192
86,818,FarHighNarrow,0.2,0.15,0.1,0.019952623149688792,0,99
86,819,FarLowNarrow,0.1,0.15,0.2,0.025118864315095798,0,0.4980964650021633
86,820,FarLowWide,0.03,0.25,0.5,0.050118723362727206,0,0.4899288099986734
86,821,FarHighNarrow,0.2,0.15,0.1,0.025118864315095798,0,0.6474642639986996
86,822,FarLowWide,0.03,0.25,0.5,0.0630957344480193,0,0.47560083599819336
86,823,FarLowWide,0.03,0.25,0.5,0.07943282347242812,0,99
86,824,Constant,0.1,0.1,0.1,0.012589254117941668,0,0.613226476998534
86,825,FarHighWide,0.5,0.25,0.03,0.03162277660168379,1,0.3631932030002645
86,826,FarHighWide,0.5,0.25,0.03,0.025118864315095798,1,0.2734340720016917
86,827,ThreeLinesControl,0.0,0.0,0.1,0.03981071705534971,1,0.3084767250002187
86,828,Constant,0.1,0.1,0.1,0.01584893192461113,1,0.33865479200176196
86,829,ThreeLinesControl,0.0,0.0,0.1,0.031622776601683784,1,0.2887125599991123
86,830,FarLowWide,0.03,0.25,0.5,0.09999999999999998,1,0.27673787599997013
86,831,FarLowWide,0.03,0.25,0.5,0.07943282347242812,1,0.25092366699755075
86,832,FarLowNarrow,0.1,0.15,0.2,0.03162277660168379,1,0.36910894899847335
86,833,ThreeLinesControl,0.0,0.0,0.1,0.02511886431509579,1,0.33516928300014115
86,834,FarLowNarrow,0.1,0.15,0.2,0.025118864315095798,1,0.37342705500122975
86,835,FarHighNarrow_null,0.2,0.15,0.1,0.015848931924611127,0,0.3810888389998581
86,836,FarLowNarrow,0.1,0.15,0.2,0.019952623149688792,1,0.300011295999866
86,837,FarLowNarrow,0.1,0.15,0.2,0.01584893192461113,1,0.5226104890025454
86,838,Constant,0.1,0.1,0.1,0.012589254117941668,1,0.3891612580009678
86,839,FarHighNarrow_null,0.2,0.15,0.1,0.01995262314968879,1,0.6042728680004075
86,840,Constant,0.1,0.1,0.1,0.009999999999999997,1,0.6404977990023326
86,841,FarLowNarrow,0.1,0.15,0.2,0.012589254117941668,1,0.43851460099904216
86,842,FarLowNarrow,0.1,0.15,0.2,0.009999999999999997,1,0.220748266998271
86,843,FarHighWide,0.5,0.25,0.03,0.019952623149688792,0,0.42683519099955447
86,844,ThreeLinesControl,0.0,0.0,0.1,0.01995262314968879,1,0.28149858200049493
86,845,FarHighWide,0.5,0.25,0.03,0.025118864315095798,0,0.4066235699974641
86,846,FarLowWide_null,0.03,0.25,0.5,0.00794328234724281,1,0.5100147250013833
86,847,FarHighNarrow,0.2,0.15,0.1,0.03162277660168379,1,0.417287985997973
86,848,ThreeLinesControl,0.0,0.0,0.1,0.015848931924611127,0,0.45436612100093043
86,849,FarHighWide,0.5,0.25,0.03,0.03162277660168379,1,0.3938443629995163
86,850,FarHighNarrow,0.2,0.15,0.1,0.025118864315095798,1,0.376060447000782
86,851,FarLowNarrow,0.1,0.15,0.2,0.007943282347242812,1,0.40608002500084694
86,852,FarLowWide,0.03,0.25,0.5,0.0630957344480193,1,0.5052799380027864
86,853,ThreeLinesControl,0.0,0.0,0.1,0.01995262314968879,1,0.5032825640009833
86,854,FarLowWide,0.03,0.25,0.5,0.050118723362727206,1,0.4375997269999061
86,855,FarHighNarrow,0.2,0.15,0.1,0.019952623149688792,1,0.35447542399924714
86,856,Constant,0.1,0.1,0.1,0.007943282347242812,0,0.5368860820017289
86,857,FarLowWide,0.03,0.25,0.5,0.039810717055349706,1,0.4470666000015626
86,858,ThreeLinesControl,0.0,0.0,0.1,0.015848931924611127,1,0.45238586499908706
86,859,FarHighWide,0.5,0.25,0.03,0.025118864315095798,1,0.4665029070019955
86,860,FarLowNarrow,0.1,0.15,0.2,0.006309573444801929,1,0.4335449880018132
86,861,FarLowWide,0.03,0.25,0.5,0.03162277660168378,1,0.4328510870000173
86,862,FarHighNarrow,0.2,0.15,0.1,0.01584893192461113,1,0.8554587730031926
86,863,FarHighNarrow_null,0.2,0.15,0.1,0.015848931924611127,1,0.482996466998884
86,864,FarLowWide,0.03,0.25,0.5,0.025118864315095787,1,0.32906348000324215
86,865,FarHighNarrow,0.2,0.15,0.1,0.012589254117941668,1,0.39616923299763585
86,866,ThreeLinesControl,0.0,0.0,0.1,0.012589254117941666,1,0.5691741999980877
86,867,FarLowWide,0.03,0.25,0.5,0.019952623149688785,0,0.4473869139983435
86,868,ThreeLinesControl,0.0,0.0,0.1,0.009999999999999995,0,0.5064042489975691
86,869,Constant,0.1,0.1,0.1,0.009999999999999997,0,0.664832626000134
86,870,FarLowNarrow,0.1,0.15,0.2,0.00501187233627272,0,99
86,871,FarLowWide,0.03,0.25,0.5,0.025118864315095787,0,0.6281326549978985
86,872,Constant,0.1,0.1,0.1,0.012589254117941668,0,0.47383125200212817
86,873,FarHighWide,0.5,0.25,0.03,0.019952623149688792,0,0.57609845800107
86,874,FarHighWide,0.5,0.25,0.03,0.025118864315095798,0,0.6221893680012727
86,875,Constant,0.1,0.1,0.1,0.01584893192461113,1,0.3478998179998598
86,876,FarLowWide,0.03,0.25,0.5,0.03162277660168378,1,0.2990915619993757
86,877,FarLowWide,0.03,0.25,0.5,0.025118864315095787,1,0.23416029199870536
86,878,Constant,0.1,0.1,0.1,0.012589254117941668,1,0.27214166399789974
86,879,Constant,0.1,0.1,0.1,0.009999999999999997,0,0.49998846300150035
86,880,ThreeLinesControl,0.0,0.0,0.1,0.012589254117941666,0,0.6904453370007104
86,881,FarLowNarrow,0.1,0.15,0.2,0.006309573444801929,0,0.5525998459997936
86,882,FarLowNarrow_null,0.1,0.15,0.2,0.00398107170553497,1,0.41973657999915304
86,883,FarHighWide,0.5,0.25,0.03,0.03162277660168379,1,0.4339900970007875
86,884,ThreeLinesControl,0.0,0.0,0.1,0.015848931924611127,0,0.4290700170022319
86,885,Constant,0.1,0.1,0.1,0.012589254117941668,1,0.3941241850006918
86,886,Constant,0.1,0.1,0.1,0.009999999999999997,1,0.38417146900246735
86,887,FarLowNarrow_null,0.1,0.15,0.2,0.0031622776601683772,1,0.5262171649992524
86,888,Constant,0.1,0.1,0.1,0.007943282347242812,0,99
86,889,ThreeLinesControl,0.0,0.0,0.1,0.01995262314968879,1,0.5149240479986474
86,890,Constant,0.1,0.1,0.1,0.009999999999999997,1,0.7129225589997077
86,891,FarLowWide,0.03,0.25,0.5,0.019952623149688785,0,0.4871007080000709
86,892,FarHighWide,0.5,0.25,0.03,0.025118864315095798,1,0.49227777200212586
86,893,FarLowNarrow,0.1,0.15,0.2,0.007943282347242812,0,0.4195929050001723
86,894,ThreeLinesControl,0.0,0.0,0.1,0.015848931924611127,1,0.6655246189984609
86,895,Constant_null,0.1,0.1,0.1,0.03981071705534971,1,0.3656845429977693
86,896,FarHighWide,0.5,0.25,0.03,0.019952623149688792,1,0.5557574869999371
86,897,Constant_null,0.1,0.1,0.1,0.031622776601683784,1,0.4417010479992314
86,898,FarHighWide,0.5,0.25,0.03,0.01584893192461113,0,99
86,899,ThreeLinesControl,0.0,0.0,0.1,0.012589254117941666,0,99
86,900,ThreeLinesControl,0.0,0.0,0.1,0.015848931924611127,0,0.6002808720004396
86,901,FarHighWide,0.5,0.25,0.03,0.019952623149688792,1,0.4355685070004256
86,902,Constant,0.1,0.1,0.1,0.007943282347242812,0,0.42452748399955453
86,903,FarHighNarrow,0.2,0.15,0.1,0.009999999999999997,0,0.2788580880005611
86,904,FarHighWide,0.5,0.25,0.03,0.01584893192461113,0,0.3959846030011249
86,905,FarHighNarrow,0.2,0.15,0.1,0.012589254117941668,0,99
86,906,FarHighNarrow,0.2,0.15,0.1,0.01584893192461113,0,99
86,907,FarHighWide_null,0.5,0.25,0.03,0.01995262314968879,1,0.37440130700269947
86,908,ThreeLinesControl,0.0,0.0,0.1,0.01995262314968879,0,0.4046031879988732
86,909,Constant,0.1,0.1,0.1,0.009999999999999997,0,0.4428671210007451
86,910,FarLowWide_null,0.03,0.25,0.5,0.0063095734448019285,1,0.5060723110000254
86,911,FarLowWide,0.03,0.25,0.5,0.025118864315095787,0,0.5040273109989357
86,912,FarLowWide,0.03,0.25,0.5,0.03162277660168378,1,0.6202553210023325
86,913,FarLowWide,0.03,0.25,0.5,0.025118864315095787,1,0.3543520040002477
86,914,FarHighNarrow_null,0.2,0.15,0.1,0.012589254117941666,1,0.4615040049975505
86,915,FarHighWide,0.5,0.25,0.03,0.019952623149688792,1,0.5313819509974564
86,916,FarHighNarrow,0.2,0.15,0.1,0.019952623149688792,0,0.448517955999705
86,917,Constant,0.1,0.1,0.1,0.012589254117941668,1,0.45272158100124216
86,918,FarLowWide,0.03,0.25,0.5,0.019952623149688785,0,0.41896907900081715
86,919,FarHighNarrow,0.2,0.15,0.1,0.025118864315095798,0,99
86,920,ThreeLinesControl,0.0,0.0,0.1,0.025118864315095794,0,0.4865115210013755
86,921,Constant_null,0.1,0.1,0.1,0.02511886431509579,1,0.5801294789998792
86,922,FarHighWide,0.5,0.25,0.03,0.01584893192461113,1,0.42668991499886033
86,923,FarLowWide,0.03,0.25,0.5,0.025118864315095787,0,0.5288523700000951
86,924,FarHighWide,0.5,0.25,0.03,0.012589254117941668,0,99
86,925,FarHighWide,0.5,0.25,0.03,0.01584893192461113,1,0.3652065770002082
86,926,Constant,0.1,0.1,0.1,0.009999999999999997,1,0.6515739609967568
86,927,FarHighWide_null,0.5,0.25,0.03,0.015848931924611127,1,0.6265594930009684
86,928,Constant,0.1,0.1,0.1,0.007943282347242812,0,99
86,929,FarHighWide,0.5,0.25,0.03,0.012589254117941668,1,0.3795364409998001
86,930,FarLowNarrow,0.1,0.15,0.2,0.009999999999999997,1,0.22279525900012231
86,931,Constant,0.1,0.1,0.1,0.009999999999999997,0,0.3409834250014683
86,932,FarHighWide,0.5,0.25,0.03,0.009999999999999997,1,0.35526355500041973
86,933,FarHighNarrow,0.2,0.15,0.1,0.03162277660168379,1,0.4056278130010469
86,934,Constant,0.1,0.1,0.1,0.012589254117941668,0,0.5331848489986442
86,935,FarLowWide_null,0.03,0.25,0.5,0.005011872336272719,1,0.3386540440005774
86,936,Constant,0.1,0.1,0.1,0.01584893192461113,1,0.5045413030020427
86,937,FarHighWide,0.5,0.25,0.03,0.007943282347242812,1,0.5669072669988964
86,938,ThreeLinesControl,0.0,0.0,0.1,0.031622776601683784,1,0.3890626689972123
86,939,FarHighWide,0.5,0.25,0.03,0.006309573444801929,1,0.4900828499994532
86,940,ThreeLinesControl,0.0,0.0,0.1,0.02511886431509579,1,0.4319464469990635
86,941,FarLowNarrow,0.1,0.15,0.2,0.007943282347242812,0,0.5518684999988182
86,942,FarLowNarrow,0.1,0.15,0.2,0.009999999999999997,0,0.4539864049984317
86,943,FarHighWide,0.5,0.25,0.03,0.00501187233627272,1,0.45185444000162533
86,944,Constant,0.1,0.1,0.1,0.012589254117941668,0,0.4149953740015917
86,945,Constant,0.1,0.1,0.1,0.01584893192461113,0,0.3251274169997487
86,946,FarLowWide,0.03,0.25,0.5,0.03162277660168378,0,0.28992323800048325
86,947,Constant,0.1,0.1,0.1,0.019952623149688792,0,0.3424127940015751
86,948,FarHighWide,0.5,0.25,0.03,0.00398107170553497,0,0.5004133300026297
86,949,Constant,0.1,0.1,0.1,0.025118864315095798,0,0.42331123199983267
86,950,Constant,0.1,0.1,0.1,0.03162277660168379,0,0.5016157789978024
86,951,Constant,0.1,0.1,0.1,0.03981071705534973,1,0.43581554100092035
86,952,Constant,0.1,0.1,0.1,0.03162277660168379,1,0.43421182699967176
86,953,FarLowNarrow,0.1,0.15,0.2,0.012589254117941668,0,0.560254129999521
86,954,ThreeLinesControl,0.0,0.0,0.1,0.01995262314968879,0,0.5744417229980172
86,955,FarHighWide,0.5,0.25,0.03,0.00501187233627272,0,0.7485692570007814
86,956,FarHighWide_null,0.5,0.25,0.03,0.012589254117941666,1,0.482061992999661
86,957,FarHighNarrow,0.2,0.15,0.1,0.025118864315095798,0,0.4749364980016253
86,958,ThreeLinesControl,0.0,0.0,0.1,0.025118864315095794,0,0.5605860149989894
86,959,FarHighWide,0.5,0.25,0.03,0.006309573444801929,1,0.4148293840007682
86,960,FarLowWide,0.03,0.25,0.5,0.039810717055349706,1,0.5564446509997651
86,961,FarLowNarrow,0.1,0.15,0.2,0.01584893192461113,0,99
86,962,FarHighNarrow_null,0.2,0.15,0.1,0.009999999999999995,1,0.32062467300056596
86,963,Constant,0.1,0.1,0.1,0.025118864315095798,0,0.2703851019978174
86,964,Constant,0.1,0.1,0.1,0.03162277660168379,1,0.3257078739989083
86,965,FarHighWide,0.5,0.25,0.03,0.00501187233627272,1,0.2829249649985286
86,966,FarHighNarrow,0.2,0.15,0.1,0.03162277660168379,1,0.4564419009984704
86,967,FarHighNarrow_null,0.2,0.15,0.1,0.00794328234724281,0,99
86,968,FarHighWide,0.5,0.25,0.03,0.00398107170553497,0,0.4774511200012057
86,969,FarLowWide,0.03,0.25,0.5,0.03162277660168378,1,0.4005296110008203
86,970,FarLowWide,0.03,0.25,0.5,0.025118864315095787,0,0.42149113900086377
86,971,FarHighWide,0.5,0.25,0.03,0.00501187233627272,0,0.46793308400083333
86,972,FarLowWide_null,0.03,0.25,0.5,0.00398107170553497,1,0.4232869749976089
86,973,FarLowWide,0.03,0.25,0.5,0.03162277660168378,1,0.40508647699971334
86,974,Constant,0.1,0.1,0.1,0.025118864315095798,1,0.47540079800091917
86,975,FarHighNarrow,0.2,0.15,0.1,0.025118864315095798,1,0.4954371430030733
86,976,Constant,0.1,0.1,0.1,0.019952623149688792,1,0.48560153000289574
86,977,ThreeLinesControl,0.0,0.0,0.1,0.031622776601683784,1,0.46782732399879023
86,978,FarHighWide,0.5,0.25,0.03,0.006309573444801929,0,99
86,979,FarHighNarrow,0.2,0.15,0.1,0.019952623149688792,0,0.6722764529986307
86,980,Constant,0.1,0.1,0.1,0.01584893192461113,1,0.5022655520006083
86,981,Constant,0.1,0.1,0.1,0.012589254117941668,0,0.4683007310013636
86,982,FarHighWide,0.5,0.25,0.03,0.007943282347242812,0,0.5497768109999015
86,983,ThreeLinesControl,0.0,0.0,0.1,0.02511886431509579,1,0.5115791280004487
86,984,FarHighWide,0.5,0.25,0.03,0.009999999999999997,0,0.59098052400077
86,985,FarHighNarrow,0.2,0.15,0.1,0.025118864315095798,1,0.6028880270023365
86,986,FarLowWide,0.03,0.25,0.5,0.025118864315095787,0,0.3599731700014672
86,987,FarHighNarrow_null,0.2,0.15,0.1,0.009999999999999995,1,0.38233022400163463
86,988,FarLowWide,0.03,0.25,0.5,0.03162277660168378,1,0.3934231820021523
86,989,FarHighNarrow,0.2,0.15,0.1,0.019952623149688792,0,0.527697456000169
86,990,FarHighWide,0.5,0.25,0.03,0.012589254117941668,1,0.3335635910007113
86,991,ThreeLinesControl,0.0,0.0,0.1,0.01995262314968879,0,0.5057996039977297
86,992,FarLowWide,0.03,0.25,0.5,0.025118864315095787,0,0.35158631400190643
86,993,FarHighNarrow,0.2,0.15,0.1,0.025118864315095798,1,0.39810742100235075
86,994,FarLowNarrow,0.1,0.15,0.2,0.019952623149688792,1,0.3239661019979394
86,995,ThreeLinesControl,0.0,0.0,0.1,0.025118864315095794,1,0.897254196999711
86,996,FarLowWide,0.03,0.25,0.5,0.03162277660168378,1,0.3607488169982389
86,997,ThreeLinesControl,0.0,0.0,0.1,0.01995262314968879,1,0.527046021001297
86,998,FarHighWide,0.5,0.25,0.03,0.009999999999999997,0,0.7162420519998705
86,999,FarLowNarrow,0.1,0.15,0.2,0.01584893192461113,0,0.5770900839997921
86,1000,Constant,0.1,0.1,0.1,0.01584893192461113,1,0.47911088899854803
86,1001,Constant,0.1,0.1,0.1,0.012589254117941668,0,0.6133842759991239
86,1002,ThreeLinesControl,0.0,0.0,0.1,0.015848931924611127,0,0.5204366199977812
86,1003,FarLowWide,0.03,0.25,0.5,0.025118864315095787,0,0.4547707560013805
86,1004,FarLowNarrow,0.1,0.15,0.2,0.019952623149688792,0,0.4977798950021679
86,1005,FarHighNarrow,0.2,0.15,0.1,0.019952623149688792,1,0.4879362060019048
86,1006,ThreeLinesControl,0.0,0.0,0.1,0.01995262314968879,0,0.582225930000277
86,1007,FarHighNarrow,0.2,0.15,0.1,0.01584893192461113,1,0.7381312500001513
86,1008,FarHighNarrow,0.2,0.15,0.1,0.012589254117941668,0,0.43211132700162125
86,1009,FarLowNarrow,0.1,0.15,0.2,0.025118864315095798,0,0.40622162600266165
86,1010,FarLowNarrow,0.1,0.15,0.2,0.03162277660168379,0,0.7086958389991196
86,1011,FarLowNarrow,0.1,0.15,0.2,0.03981071705534973,1,0.4827397289991495
86,1012,ThreeLinesControl,0.0,0.0,0.1,0.025118864315095794,0,0.45595573100217734
86,1013,Constant,0.1,0.1,0.1,0.01584893192461113,1,0.5258569190009439
86,1014,Constant,0.1,0.1,0.1,0.012589254117941668,0,0.511039298002288
86,1015,FarHighNarrow,0.2,0.15,0.1,0.01584893192461113,1,0.5959950920005213
86,1016,FarHighWide,0.5,0.25,0.03,0.012589254117941668,0,0.5045493190009438
86,1017,FarHighWide,0.5,0.25,0.03,0.01584893192461113,0,0.4067180330021074
86,1018,FarHighNarrow,0.2,0.15,0.1,0.012589254117941668,0,0.40199560999826645
86,1019,FarLowWide,0.03,0.25,0.5,0.03162277660168378,1,0.26380870600041817
86,1020,FarHighWide,0.5,0.25,0.03,0.019952623149688792,1,0.4770819940022193
86,1021,FarLowNarrow_null,0.1,0.15,0.2,0.002511886431509578,1,0.4400260129987146
86,1022,FarHighWide,0.5,0.25,0.03,0.01584893192461113,0,0.5501907889993163
86,1023,FarLowWide,0.03,0.25,0.5,0.025118864315095787,0,0.4523145019993535
86,1024,Constant,0.1,0.1,0.1,0.01584893192461113,1,0.4502742029981164
86,1025,FarLowWide_null,0.03,0.25,0.5,0.0031622776601683772,1,0.37511978200200247
86,1026,ThreeLinesControl,0.0,0.0,0.1,0.031622776601683784,1,0.4295031770016067
86,1027,FarHighNarrow,0.2,0.15,0.1,0.01584893192461113,1,0.6361612129985588
86,1028,ThreeLinesControl,0.0,0.0,0.1,0.02511886431509579,0,0.4414814090014261
86,1029,FarLowWide,0.03,0.25,0.5,0.03162277660168378,1,0.4969766870017338
86,1030,FarLowWide,0.03,0.25,0.5,0.025118864315095787,0,0.4307354690026841
86,1031,FarLowNarrow,0.1,0.15,0.2,0.03162277660168379,1,0.4463100889988709
86,1032,FarHighNarrow,0.2,0.15,0.1,0.012589254117941668,0,0.682141954999679
86,1033,FarLowNarrow,0.1,0.15,0.2,0.025118864315095798,0,0.3920995899970876
86,1034,ThreeLinesControl,0.0,0.0,0.1,0.031622776601683784,1,0.3792861340007221
86,1035,FarLowWide,0.03,0.25,0.5,0.03162277660168378,1,0.7533739919999789
86,1036,ThreeLinesControl,0.0,0.0,0.1,0.02511886431509579,1,0.48752617499849293
86,1037,FarHighWide,0.5,0.25,0.03,0.019952623149688792,0,0.39468284499889705
86,1038,FarLowNarrow_null,0.1,0.15,0.2,0.001995262314968878,0,0.6959720859995286
86,1039,FarLowWide,0.03,0.25,0.5,0.025118864315095787,0,0.41391829599888297
86,1040,ThreeLinesControl,0.0,0.0,0.1,0.01995262314968879,0,0.4280886909982655
86,1041,FarHighWide,0.5,0.25,0.03,0.025118864315095798,0,0.5212522570000147
86,1042,FarLowNarrow,0.1,0.15,0.2,0.03162277660168379,1,0.408363692000421
86,1043,FarHighNarrow,0.2,0.15,0.1,0.01584893192461113,1,0.549559543000214
86,1044,FarLowWide,0.03,0.25,0.5,0.03162277660168378,1,0.5076636540034087
86,1045,ThreeLinesControl,0.0,0.0,0.1,0.025118864315095794,0,0.5140865999965172
86,1046,FarHighWide,0.5,0.25,0.03,0.03162277660168379,0,0.5309116680000443
86,1047,FarLowWide,0.03,0.25,0.5,0.025118864315095787,1,0.4330588220000209
86,1048,FarLowWide_null,0.03,0.25,0.5,0.002511886431509578,1,0.46835978800299927
86,1049,FarLowWide,0.03,0.25,0.5,0.019952623149688785,0,0.34532848199887667
86,1050,FarLowNarrow,0.1,0.15,0.2,0.025118864315095798,1,0.5967233869996562
86,1051,FarHighNarrow,0.2,0.15,0.1,0.012589254117941668,0,0.4825070129991218
86,1052,FarLowWide_null,0.03,0.25,0.5,0.001995262314968878,1,0.4008118989986542
86,1053,Constant,0.1,0.1,0.1,0.012589254117941668,0,0.46009108099678997
86,1054,FarHighWide,0.5,0.25,0.03,0.03981071705534973,1,0.47415012900091824
86,1055,ThreeLinesControl,0.0,0.0,0.1,0.031622776601683784,0,0.42424722999930964
86,1056,FarLowNarrow,0.1,0.15,0.2,0.019952623149688792,1,0.3011913109985471
86,1057,FarHighNarrow,0.2,0.15,0.1,0.01584893192461113,1,0.3560305810024147
86,1058,Constant,0.1,0.1,0.1,0.01584893192461113,0,0.5136497849998705
86,1059,ThreeLinesControl,0.0,0.0,0.1,0.03981071705534971,1,0.8240733540005749
86,1060,Constant,0.1,0.1,0.1,0.019952623149688792,1,0.40595787199708866
86,1061,ThreeLinesControl,0.0,0.0,0.1,0.031622776601683784,1,0.3003260389996285
86,1062,Constant,0.1,0.1,0.1,0.01584893192461113,0,0.5067025999996986
86,1063,ThreeLinesControl,0.0,0.0,0.1,0.02511886431509579,1,0.43369489399992744
86,1064,FarLowWide_null,0.03,0.25,0.5,0.0015848931924611121,1,0.38854917000207934
86,1065,ThreeLinesControl,0.0,0.0,0.1,0.01995262314968879,0,0.44258055400132434
86,1066,FarLowWide,0.03,0.25,0.5,0.025118864315095787,1,0.37714097400021274
86,1067,Constant_null,0.1,0.1,0.1,0.01995262314968879,1,0.4043008059998101
86,1068,FarLowWide,0.03,0.25,0.5,0.019952623149688785,0,0.36241654000332346
86,1069,ThreeLinesControl,0.0,0.0,0.1,0.025118864315095794,0,0.5255032039967773
86,1070,FarHighWide,0.5,0.25,0.03,0.03162277660168379,1,0.4192436789999192
86,1071,ThreeLinesControl,0.0,0.0,0.1,0.031622776601683784,1,0.48155234300065786
86,1072,FarLowNarrow,0.1,0.15,0.2,0.01584893192461113,0,0.6466745979996631
86,1073,FarHighNarrow,0.2,0.15,0.1,0.012589254117941668,1,0.34802009200211614
86,1074,FarLowNarrow,0.1,0.15,0.2,0.019952623149688792,0,0.7471171170000162
86,1075,ThreeLinesControl,0.0,0.0,0.1,0.02511886431509579,1,0.3998725999990711
86,1076,FarLowNarrow,0.1,0.15,0.2,0.025118864315095798,0,0.42121729200152913
86,1077,FarLowWide,0.03,0.25,0.5,0.025118864315095787,0,0.4116348450006626
86,1078,FarLowNarrow,0.1,0.15,0.2,0.03162277660168379,1,0.46665669700087165
86,1079,FarHighNarrow,0.2,0.15,0.1,0.009999999999999997,0,0.5531819589996303
86,1080,FarHighWide,0.5,0.25,0.03,0.025118864315095798,0,0.594244071002322
86,1081,Constant_null,0.1,0.1,0.1,0.015848931924611127,1,0.43179828299980727
86,1082,FarHighNarrow,0.2,0.15,0.1,0.012589254117941668,0,0.44544654700075625
86,1083,ThreeLinesControl,0.0,0.0,0.1,0.01995262314968879,0,0.371193167000456
86,1084,FarHighNarrow,0.2,0.15,0.1,0.01584893192461113,0,0.8258551159997296
86,1085,Constant_null,0.1,0.1,0.1,0.012589254117941666,1,0.3519778120025876
86,1086,ThreeLinesControl,0.0,0.0,0.1,0.025118864315095794,1,0.574581531000149
86,1087,FarLowNarrow,0.1,0.15,0.2,0.025118864315095798,1,0.4924816439997812
86,1088,ThreeLinesControl,0.0,0.0,0.1,0.01995262314968879,1,0.42752857500090613
86,1089,ThreeLinesControl,0.0,0.0,0.1,0.015848931924611127,1,0.3024221449995821
86,1090,FarLowWide,0.03,0.25,0.5,0.03162277660168378,0,0.4687434250008664
86,1091,ThreeLinesControl,0.0,0.0,0.1,0.012589254117941666,1,0.4509609870001441
86,1092,ThreeLinesControl,0.0,0.0,0.1,0.009999999999999995,0,0.3978651630022796
86,1093,ThreeLinesControl,0.0,0.0,0.1,0.012589254117941666,0,0.3314434029998665
86,1094,FarLowWide,0.03,0.25,0.5,0.039810717055349706,1,0.3671332780031662
86,1095,Constant_null,0.1,0.1,0.1,0.009999999999999995,1,0.4135216840004432
86,1096,FarHighNarrow,0.2,0.15,0.1,0.019952623149688792,1,0.49966662199949496
86,1097,FarLowNarrow,0.1,0.15,0.2,0.019952623149688792,0,0.37660045200027525
86,1098,FarLowWide,0.03,0.25,0.5,0.03162277660168378,0,0.5026856570002565
86,1099,FarHighWide,0.5,0.25,0.03,0.03162277660168379,1,0.3489240510025411
86,1100,FarHighNarrow,0.2,0.15,0.1,0.01584893192461113,0,0.5310982860028162
86,1101,FarLowNarrow,0.1,0.15,0.2,0.025118864315095798,1,0.27324190700164763
86,1102,FarLowNarrow,0.1,0.15,0.2,0.019952623149688792,1,0.42355585300174425
86,1103,FarHighWide,0.5,0.25,0.03,0.025118864315095798,0,99
86,1104,FarHighNarrow,0.2,0.15,0.1,0.019952623149688792,1,0.34000974599985057
86,1105,FarHighNarrow,0.2,0.15,0.1,0.01584893192461113,1,0.43962486300006276
86,1106,FarLowNarrow,0.1,0.15,0.2,0.01584893192461113,0,0.47009144199910224
86,1107,FarHighNarrow,0.2,0.15,0.1,0.012589254117941668,1,0.6032532579993131
86,1108,Constant_null,0.1,0.1,0.1,0.00794328234724281,1,0.6623593730000721
86,1109,FarHighWide,0.5,0.25,0.03,0.03162277660168379,1,0.5881801289979194
86,1110,FarHighWide,0.5,0.25,0.03,0.025118864315095798,1,0.4423314060004486
86,1111,FarLowNarrow,0.1,0.15,0.2,0.019952623149688792,1,0.4783289599981799
86,1112,FarLowWide,0.03,0.25,0.5,0.039810717055349706,1,0.48394457700123894
86,1113,ThreeLinesControl,0.0,0.0,0.1,0.015848931924611127,1,0.5467220460013777
86,1114,FarLowNarrow,0.1,0.15,0.2,0.01584893192461113,1,0.44824038600199856
86,1115,FarLowNarrow,0.1,0.15,0.2,0.012589254117941668,0,99
86,1116,Constant,0.1,0.1,0.1,0.019952623149688792,0,0.3637484509999922
86,1117,FarHighWide,0.5,0.25,0.03,0.019952623149688792,1,0.2505717240019294
86,1118,FarHighNarrow,0.2,0.15,0.1,0.009999999999999997,0,0.6408371979996446
86,1119,Constant,0.1,0.1,0.1,0.025118864315095798,1,0.4311586840012751
86,1120,FarHighWide,0.5,0.25,0.03,0.01584893192461113,0,0.5100934889997006
86,1121,ThreeLinesControl,0.0,0.0,0.1,0.012589254117941666,0,0.49263328300003195
86,1122,ThreeLinesControl,0.0,0.0,0.1,0.015848931924611127,1,0.27944956999999704
86,1123,FarLowWide,0.03,0.25,0.5,0.03162277660168378,1,0.645475040000747
86,1124,FarHighWide,0.5,0.25,0.03,0.019952623149688792,1,0.35282623099919874
86,1125,ThreeLinesControl,0.0,0.0,0.1,0.012589254117941666,0,0.4945940180004982
86,1126,FarHighWide,0.5,0.25,0.03,0.01584893192461113,0,0.7165958860023238
86,1127,FarLowWide,0.03,0.25,0.5,0.025118864315095787,0,0.5445999229996232
86,1128,FarHighWide,0.5,0.25,0.03,0.019952623149688792,1,0.31108204599877354
86,1129,ThreeLinesControl,0.0,0.0,0.1,0.015848931924611127,1,0.6204901780001819
86,1130,FarLowNarrow,0.1,0.15,0.2,0.01584893192461113,0,0.3931238340010168
86,1131,FarLowWide,0.03,0.25,0.5,0.03162277660168378,1,0.5823000989985303
86,1132,ThreeLinesControl,0.0,0.0,0.1,0.012589254117941666,0,0.3968937309982721
86,1133,FarHighWide,0.5,0.25,0.03,0.01584893192461113,0,0.6587443370008259
86,1134,FarHighNarrow,0.2,0.15,0.1,0.012589254117941668,0,0.48817849199986085
86,1135,Constant_null,0.1,0.1,0.1,0.0063095734448019285,1,0.42226953899807995
86,1136,Constant,0.1,0.1,0.1,0.019952623149688792,1,0.4282321780010534
86,1137,ThreeLinesControl,0.0,0.0,0.1,0.015848931924611127,0,0.45856694399844855
86,1138,ThreeLinesControl,0.0,0.0,0.1,0.01995262314968879,1,0.5977955460002704
86,1139,FarHighNarrow,0.2,0.15,0.1,0.01584893192461113,0,0.4120169169982546
86,1140,FarHighWide,0.5,0.25,0.03,0.019952623149688792,0,0.4071145429988974
86,1141,FarHighNarrow,0.2,0.15,0.1,0.019952623149688792,1,0.40523610599848325
86,1142,Constant,0.1,0.1,0.1,0.01584893192461113,1,0.37920222299726447
86,1143,FarHighWide,0.5,0.25,0.03,0.025118864315095798,1,0.39128350500322995
86,1144,FarHighNarrow,0.2,0.15,0.1,0.01584893192461113,1,0.4456353039968235
86,1145,FarHighNarrow,0.2,0.15,0.1,0.012589254117941668,1,0.3786573830002453
86,1146,FarLowNarrow,0.1,0.15,0.2,0.019952623149688792,0,0.3927345449992572
86,1147,Constant,0.1,0.1,0.1,0.012589254117941668,0,0.40726424799868255
86,1148,FarLowNarrow,0.1,0.15,0.2,0.025118864315095798,1,0.44505301200115355
86,1149,Constant,0.1,0.1,0.1,0.01584893192461113,1,0.42734989800010226
86,1150,Constant,0.1,0.1,0.1,0.012589254117941668,0,0.553652841001167
86,1151,FarHighWide,0.5,0.25,0.03,0.019952623149688792,1,0.39840572100001737
86,1152,Constant,0.1,0.1,0.1,0.01584893192461113,0,0.4847119739970367
86,1153,FarHighNarrow,0.2,0.15,0.1,0.009999999999999997,1,0.5550647050004045
86,1154,Constant,0.1,0.1,0.1,0.019952623149688792,1,0.677823989000899
86,1155,FarHighWide,0.5,0.25,0.03,0.01584893192461113,0,0.5960011360002682
86,1156,FarLowNarrow,0.1,0.15,0.2,0.019952623149688792,0,0.47446942500027944
86,1157,FarHighNarrow,0.2,0.15,0.1,0.007943282347242812,0,0.42956991299797664
86,1158,FarHighNarrow,0.2,0.15,0.1,0.009999999999999997,0,0.6997922350019508
86,1159,Constant,0.1,0.1,0.1,0.01584893192461113,1,0.42376518699893495
86,1160,FarLowNarrow,0.1,0.15,0.2,0.025118864315095798,0,0.41405913600101485
86,1161,FarLowNarrow,0.1,0.15,0.2,0.03162277660168379,0,0.41227747700031614
86,1162,FarLowNarrow,0.1,0.15,0.2,0.03981071705534973,1,0.4502227659977507
86,1163,FarHighWide,0.5,0.25,0.03,0.019952623149688792,0,0.5833508060022723
86,1164,FarLowNarrow,0.1,0.15,0.2,0.03162277660168379,0,0.6213042799972754
86,1165,Constant,0.1,0.1,0.1,0.012589254117941668,0,0.3878736240003491
86,1166,Constant,0.1,0.1,0.1,0.01584893192461113,0,0.4258092080017377
86,1167,Constant,0.1,0.1,0.1,0.019952623149688792,0,99
86,1168,FarLowNarrow,0.1,0.15,0.2,0.03981071705534973,0,0.30916155299928505
86,1169,FarLowNarrow,0.1,0.15,0.2,0.050118723362727234,1,0.5470645140012493
86,1170,Constant,0.1,0.1,0.1,0.025118864315095798,0,0.40718954100157134
86,1171,Constant,0.1,0.1,0.1,0.03162277660168379,1,0.5496578060010506
86,1172,FarHighNarrow,0.2,0.15,0.1,0.012589254117941668,0,0.5398574660030135
86,1173,Constant,0.1,0.1,0.1,0.025118864315095798,0,0.5429738769998949
86,1174,Constant_null,0.1,0.1,0.1,0.005011872336272719,1,0.4280846460023895
86,1175,FarHighWide,0.5,0.25,0.03,0.025118864315095798,0,0.8179733240031055
86,1176,FarHighWide,0.5,0.25,0.03,0.03162277660168379,0,0.6875429220017395
86,1177,FarLowNarrow,0.1,0.15,0.2,0.03981071705534973,0,0.42151594199822284
86,1178,FarHighWide,0.5,0.25,0.03,0.03981071705534973,1,0.3386017460034054
86,1179,FarHighWide,0.5,0.25,0.03,0.03162277660168379,1,0.5684117609998793
86,1180,FarHighWide,0.5,0.25,0.03,0.025118864315095798,1,0.41485871500117355
86,1181,Constant,0.1,0.1,0.1,0.03162277660168379,1,0.37311690299975453
86,1182,Constant,0.1,0.1,0.1,0.025118864315095798,1,0.45935494199875393
86,1183,FarHighWide,0.5,0.25,0.03,0.019952623149688792,1,0.4360806260010577
86,1184,FarHighWide,0.5,0.25,0.03,0.01584893192461113,0,99
86,1185,FarLowNarrow,0.1,0.15,0.2,0.050118723362727234,1,0.45268737399965175
86,1186,FarLowNarrow,0.1,0.15,0.2,0.03981071705534973,1,0.3467920610019064
86,1187,FarLowNarrow,0.1,0.15,0.2,0.03162277660168379,1,0.2846544210005959
86,1188,FarHighWide,0.5,0.25,0.03,0.019952623149688792,1,0.5790601640001114
86,1189,FarLowNarrow,0.1,0.15,0.2,0.025118864315095798,1,0.3584501689983881
86,1190,Constant_null,0.1,0.1,0.1,0.00398107170553497,1,0.4605006189995038
86,1191,FarLowNarrow,0.1,0.15,0.2,0.019952623149688792,0,0.2980714139994234
86,1192,FarHighWide,0.5,0.25,0.03,0.01584893192461113,1,0.5426200109977799
86,1193,FarHighWide,0.5,0.25,0.03,0.012589254117941668,1,0.46889403000022867
86,1194,Constant,0.1,0.1,0.1,0.019952623149688792,1,0.4029548159996921
86,1195,Constant,0.1,0.1,0.1,0.01584893192461113,1,0.3852723599993624
86,1196,Constant,0.1,0.1,0.1,0.012589254117941668,0,0.5192365210023127
86,1197,Constant,0.1,0.1,0.1,0.01584893192461113,0,0.5336911880003754
86,1198,Constant,0.1,0.1,0.1,0.019952623149688792,1,0.4516874229993846
86,1199,Constant_null,0.1,0.1,0.1,0.0031622776601683772,1,0.4900205489975633
