Participant_Number,Trial_Number,Condition,FCfar,FCmed,FCclose,Target_Contrast,Correct_Response,Reaction_Time
89,0,Constant,0.1,0.1,0.1,0.1,1,0.9611508850002792
89,1,ThreeLinesControl,0.0,0.0,0.1,0.1,1,0.43182275500021206
89,2,FarLowNarrow,0.1,0.15,0.2,0.1,1,0.25376088599978175
89,3,FarHighNarrow,0.2,0.15,0.1,0.1,1,0.24398717400026726
89,4,Constant,0.1,0.1,0.1,0.07943282347242815,1,0.3370373220000147
89,5,FarLowWide,0.03,0.25,0.5,0.1,1,0.6469488210000236
89,6,Constant,0.1,0.1,0.1,0.06309573444801932,1,0.6453987609997967
89,7,ThreeLinesControl,0.0,0.0,0.1,0.07943282347242815,1,0.7155854659999932
89,8,FarHighWide,0.5,0.25,0.03,0.1,1,0.7382080830002451
89,9,Constant,0.1,0.1,0.1,0.05011872336272722,1,0.8403054509999492
89,10,ThreeLinesControl,0.0,0.0,0.1,0.06309573444801932,1,0.7270836990001044
89,11,ThreeLinesControl,0.0,0.0,0.1,0.05011872336272722,1,0.5381652640003267
89,12,Constant,0.1,0.1,0.1,0.03981071705534971,1,0.5831299070000568
89,13,ThreeLinesControl,0.0,0.0,0.1,0.03981071705534971,1,0.437231600999894
89,14,FarLowWide_null,0.03,0.25,0.5,0.1,1,0.6164832829999796
89,15,FarHighWide_null,0.5,0.25,0.03,0.1,0,0.6865673429997514
89,16,FarLowNarrow,0.1,0.15,0.2,0.07943282347242815,1,0.8588649329999498
89,17,ThreeLinesControl,0.0,0.0,0.1,0.031622776601683784,1,0.8726746399997865
89,18,FarLowNarrow,0.1,0.15,0.2,0.06309573444801932,1,0.6870027580002898
89,19,FarHighNarrow,0.2,0.15,0.1,0.07943282347242815,1,0.5893285090000973
89,20,ThreeLinesControl,0.0,0.0,0.1,0.02511886431509579,1,0.4351027829998202
89,21,ThreeLinesControl,0.0,0.0,0.1,0.01995262314968879,1,0.3363906580002549
89,22,FarLowWide,0.03,0.25,0.5,0.07943282347242815,1,0.40667439400021976
89,23,FarHighWide,0.5,0.25,0.03,0.07943282347242815,1,0.3489918300001591
89,24,FarLowWide,0.03,0.25,0.5,0.06309573444801932,1,0.4182582530002037
89,25,Constant,0.1,0.1,0.1,0.031622776601683784,1,0.5763703259999602
89,26,Constant,0.1,0.1,0.1,0.02511886431509579,1,0.5035118000000693
89,27,ThreeLinesControl,0.0,0.0,0.1,0.015848931924611127,1,0.6903804309999941
89,28,ThreeLinesControl,0.0,0.0,0.1,0.012589254117941666,0,0.7914775109998118
89,29,ThreeLinesControl,0.0,0.0,0.1,0.015848931924611127,0,0.7256517880000501
89,30,FarLowNarrow,0.1,0.15,0.2,0.05011872336272722,1,0.6888120579997121
89,31,FarLowWide_null,0.03,0.25,0.5,0.07943282347242815,0,0.782897624999805
89,32,FarHighNarrow,0.2,0.15,0.1,0.06309573444801932,1,0.8512959519998731
89,33,FarLowWide,0.03,0.25,0.5,0.05011872336272722,1,0.47320682800000213
89,34,FarHighWide,0.5,0.25,0.03,0.06309573444801932,1,0.6474230579997311
89,35,FarHighNarrow_null,0.2,0.15,0.1,0.1,1,0.701696033999724
89,36,FarHighWide,0.5,0.25,0.03,0.05011872336272722,1,0.6667795680000381
89,37,FarLowNarrow,0.1,0.15,0.2,0.03981071705534971,1,0.7850186770001528
89,38,FarLowWide,0.03,0.25,0.5,0.03981071705534971,1,0.8474061980000442
89,39,FarHighWide,0.5,0.25,0.03,0.03981071705534971,1,0.9167598439998983
89,40,FarHighNarrow,0.2,0.15,0.1,0.05011872336272722,1,0.6504307189998144
89,41,Constant,0.1,0.1,0.1,0.01995262314968879,1,0.5204852500000925
89,42,FarLowWide,0.03,0.25,0.5,0.031622776601683784,1,0.35831277300030706
89,43,FarLowWide,0.03,0.25,0.5,0.02511886431509579,1,0.2980317000001378
89,44,FarHighNarrow,0.2,0.15,0.1,0.03981071705534971,1,0.2640613840003425
89,45,Constant,0.1,0.1,0.1,0.015848931924611127,1,0.31821508099983475
89,46,FarLowNarrow,0.1,0.15,0.2,0.031622776601683784,1,0.3532982080000693
89,47,FarLowNarrow,0.1,0.15,0.2,0.02511886431509579,1,0.34338060199979736
89,48,Constant,0.1,0.1,0.1,0.012589254117941666,1,0.38143033000005744
89,49,FarHighWide,0.5,0.25,0.03,0.031622776601683784,1,0.3457288409999819
89,50,ThreeLinesControl,0.0,0.0,0.1,0.01995262314968879,1,0.3439158910000515
89,51,Constant,0.1,0.1,0.1,0.009999999999999995,0,0.558040821999839
89,52,Constant,0.1,0.1,0.1,0.012589254117941666,0,0.5072458290001123
89,53,FarHighNarrow,0.2,0.15,0.1,0.031622776601683784,0,0.5453078890000143
89,54,ThreeLinesControl_null,0.0,0.0,0.1,0.1,1,0.7762255460002052
89,55,FarHighNarrow,0.2,0.15,0.1,0.03981071705534971,1,0.4866943759998321
89,56,FarHighNarrow,0.2,0.15,0.1,0.031622776601683784,1,0.5264999210003225
89,57,FarLowWide,0.03,0.25,0.5,0.01995262314968879,1,1.0497057219999988
89,58,FarHighNarrow,0.2,0.15,0.1,0.02511886431509579,1,0.3280993099997431
89,59,FarHighNarrow,0.2,0.15,0.1,0.01995262314968879,0,0.493066631000147
89,60,Constant,0.1,0.1,0.1,0.015848931924611127,0,0.5453741149999587
89,61,Constant,0.1,0.1,0.1,0.01995262314968879,1,0.6953611680000904
89,62,FarLowWide,0.03,0.25,0.5,0.015848931924611127,1,0.8895266489998903
89,63,FarHighWide,0.5,0.25,0.03,0.02511886431509579,1,0.42375681499970597
89,64,FarLowNarrow,0.1,0.15,0.2,0.01995262314968879,0,0.5179313859998729
89,65,FarHighNarrow,0.2,0.15,0.1,0.025118864315095794,0,0.465651846000128
89,66,ThreeLinesControl,0.0,0.0,0.1,0.015848931924611127,0,0.4798504899999898
89,67,Constant,0.1,0.1,0.1,0.015848931924611127,1,0.574356570999953
89,68,FarHighNarrow,0.2,0.15,0.1,0.031622776601683784,1,0.4679430319997664
89,69,FarHighNarrow,0.2,0.15,0.1,0.02511886431509579,1,0.5945813070002259
89,70,FarLowNarrow,0.1,0.15,0.2,0.025118864315095794,1,0.43179238699985945
89,71,ThreeLinesControl,0.0,0.0,0.1,0.01995262314968879,1,0.3415493229999811
89,72,Constant,0.1,0.1,0.1,0.012589254117941666,0,0.9739563969997107
89,73,FarLowNarrow,0.1,0.15,0.2,0.01995262314968879,0,0.8413319839996802
89,74,Constant,0.1,0.1,0.1,0.015848931924611127,0,0.7744772579999335
89,75,FarLowWide,0.03,0.25,0.5,0.012589254117941666,0,0.6284585839998726
89,76,FarLowWide,0.03,0.25,0.5,0.015848931924611127,1,0.6393292289999408
89,77,ThreeLinesControl,0.0,0.0,0.1,0.015848931924611127,1,0.3654470000001311
89,78,FarLowWide,0.03,0.25,0.5,0.012589254117941666,1,0.46478966600034255
89,79,FarLowNarrow,0.1,0.15,0.2,0.025118864315095794,0,0.5112244550000469
89,80,ThreeLinesControl_null,0.0,0.0,0.1,0.07943282347242815,1,0.6439755080000396
89,81,FarLowWide,0.03,0.25,0.5,0.009999999999999995,0,0.3854832299998634
89,82,FarHighNarrow,0.2,0.15,0.1,0.01995262314968879,1,0.5352114590000383
89,83,FarHighNarrow,0.2,0.15,0.1,0.015848931924611127,1,0.397645601000022
89,84,Constant,0.1,0.1,0.1,0.01995262314968879,1,0.44362147699985144
89,85,FarLowNarrow,0.1,0.15,0.2,0.031622776601683784,1,0.4338436050002201
89,86,FarLowNarrow,0.1,0.15,0.2,0.02511886431509579,1,0.3269647789998089
89,87,FarHighNarrow,0.2,0.15,0.1,0.012589254117941666,1,0.5985984290000488
89,88,FarLowNarrow,0.1,0.15,0.2,0.01995262314968879,1,0.7647087600003033
89,89,FarLowNarrow,0.1,0.15,0.2,0.015848931924611127,1,0.8415602390000458
89,90,FarLowNarrow,0.1,0.15,0.2,0.012589254117941666,0,99
89,91,ThreeLinesControl,0.0,0.0,0.1,0.012589254117941666,0,99
89,92,FarHighWide,0.5,0.25,0.03,0.01995262314968879,1,0.5359808139996858
89,93,FarHighWide,0.5,0.25,0.03,0.015848931924611127,1,0.39805885699979626
89,94,FarHighWide,0.5,0.25,0.03,0.012589254117941666,1,0.42849479699998483
89,95,FarHighNarrow,0.2,0.15,0.1,0.009999999999999995,1,0.4714956819998406
89,96,ThreeLinesControl,0.0,0.0,0.1,0.015848931924611127,0,0.4936584130000483
89,97,FarHighNarrow_null,0.2,0.15,0.1,0.07943282347242815,1,0.4507044929996482
89,98,FarLowWide,0.03,0.25,0.5,0.012589254117941666,0,0.4006046240001524
89,99,ThreeLinesControl,0.0,0.0,0.1,0.01995262314968879,0,0.4870304149999356
89,100,FarLowNarrow,0.1,0.15,0.2,0.015848931924611127,0,0.5009131159999924
89,101,FarHighNarrow,0.2,0.15,0.1,0.00794328234724281,0,0.6824502170002233
89,102,ThreeLinesControl,0.0,0.0,0.1,0.025118864315095794,1,0.5453951909998977
89,103,FarHighNarrow,0.2,0.15,0.1,0.009999999999999995,1,0.6228359189999537
89,104,FarLowWide_null,0.03,0.25,0.5,0.1,1,0.5661700050000036
89,105,Constant,0.1,0.1,0.1,0.015848931924611127,1,0.41326820599988423
89,106,FarLowWide,0.03,0.25,0.5,0.015848931924611127,0,0.6491877720000048
89,107,FarLowNarrow_null,0.1,0.15,0.2,0.1,1,0.6555004729998473
89,108,FarLowWide,0.03,0.25,0.5,0.01995262314968879,0,0.5225340420001885
89,109,FarHighWide,0.5,0.25,0.03,0.009999999999999995,0,0.5847152329997698
89,110,FarLowNarrow_null,0.1,0.15,0.2,0.07943282347242815,1,0.43065126699957545
89,111,Constant,0.1,0.1,0.1,0.012589254117941666,0,1.0896372809997956
89,112,FarHighWide,0.5,0.25,0.03,0.012589254117941666,0,99
89,113,FarHighWide,0.5,0.25,0.03,0.015848931924611127,1,0.3409988630000953
89,114,FarLowNarrow,0.1,0.15,0.2,0.01995262314968879,0,99
89,115,FarLowNarrow,0.1,0.15,0.2,0.025118864315095794,1,0.33739212000000407
89,116,FarHighNarrow_null,0.2,0.15,0.1,0.06309573444801932,0,0.3192167160000281
89,117,ThreeLinesControl,0.0,0.0,0.1,0.01995262314968879,1,0.4765783759999067
89,118,FarLowWide,0.03,0.25,0.5,0.025118864315095794,1,0.3947346770000877
89,119,FarHighWide,0.5,0.25,0.03,0.012589254117941666,1,0.5855343990001529
89,120,FarHighWide,0.5,0.25,0.03,0.009999999999999995,1,0.8817842070002371
89,121,Constant,0.1,0.1,0.1,0.015848931924611127,1,0.6642356950001158
89,122,Constant,0.1,0.1,0.1,0.012589254117941666,0,0.45423406200006866
89,123,FarLowNarrow,0.1,0.15,0.2,0.01995262314968879,0,0.6684242039996207
89,124,Constant,0.1,0.1,0.1,0.015848931924611127,1,0.7946213720001651
89,125,ThreeLinesControl,0.0,0.0,0.1,0.015848931924611127,1,0.5140116279999347
89,126,FarLowNarrow,0.1,0.15,0.2,0.025118864315095794,1,0.38971454000011363
89,127,FarHighNarrow,0.2,0.15,0.1,0.00794328234724281,1,0.3787259940004333
89,128,FarHighNarrow,0.2,0.15,0.1,0.0063095734448019285,0,0.3769663420002871
89,129,FarLowWide,0.03,0.25,0.5,0.01995262314968879,0,0.4200065520003591
89,130,Constant,0.1,0.1,0.1,0.012589254117941666,1,0.4983460950002154
89,131,FarLowWide_null,0.03,0.25,0.5,0.07943282347242815,1,0.4725604889999886
89,132,Constant,0.1,0.1,0.1,0.009999999999999995,1,0.4195921410000665
89,133,ThreeLinesControl_null,0.0,0.0,0.1,0.06309573444801932,1,0.7455355960000816
89,134,Constant,0.1,0.1,0.1,0.00794328234724281,1,0.5510993929997312
89,135,FarHighNarrow,0.2,0.15,0.1,0.00794328234724281,1,0.893300635000287
89,136,FarLowWide,0.03,0.25,0.5,0.025118864315095794,1,0.2596017620003295
89,137,Constant,0.1,0.1,0.1,0.0063095734448019285,0,0.5134160640000118
89,138,Constant,0.1,0.1,0.1,0.00794328234724281,0,0.5277421969999523
89,139,Constant,0.1,0.1,0.1,0.009999999999999995,1,0.3256908549997206
89,140,FarHighWide,0.5,0.25,0.03,0.00794328234724281,1,0.5568423820000135
89,141,FarHighNarrow,0.2,0.15,0.1,0.0063095734448019285,0,0.4994204280001213
89,142,ThreeLinesControl,0.0,0.0,0.1,0.012589254117941666,0,0.385541294000177
89,143,FarLowWide_null,0.03,0.25,0.5,0.06309573444801932,1,0.35713928799987116
89,144,FarLowWide,0.03,0.25,0.5,0.01995262314968879,0,0.3154072540000925
89,145,FarLowWide_null,0.03,0.25,0.5,0.05011872336272722,1,0.6706529470002351
89,146,FarHighNarrow,0.2,0.15,0.1,0.00794328234724281,1,0.4680183489999763
89,147,FarHighNarrow,0.2,0.15,0.1,0.0063095734448019285,1,0.5061024249998809
89,148,FarLowNarrow,0.1,0.15,0.2,0.01995262314968879,1,0.5729565520000506
89,149,FarLowNarrow,0.1,0.15,0.2,0.015848931924611127,1,0.4510703470000408
89,150,FarHighNarrow,0.2,0.15,0.1,0.005011872336272719,0,0.6413503920002768
89,151,FarLowNarrow,0.1,0.15,0.2,0.012589254117941666,0,0.6874082199997247
89,152,ThreeLinesControl,0.0,0.0,0.1,0.015848931924611127,1,0.5497155820003172
89,153,FarHighWide,0.5,0.25,0.03,0.0063095734448019285,1,0.6439343160000135
89,154,FarLowNarrow,0.1,0.15,0.2,0.015848931924611127,1,0.593906909999987
89,155,FarHighWide,0.5,0.25,0.03,0.005011872336272719,1,0.6801903319997109
89,156,Constant,0.1,0.1,0.1,0.00794328234724281,1,0.6866053939997983
89,157,FarLowWide,0.03,0.25,0.5,0.025118864315095794,1,0.5723911879999832
89,158,ThreeLinesControl,0.0,0.0,0.1,0.012589254117941666,1,1.0597972269997626
89,159,FarLowWide_null,0.03,0.25,0.5,0.03981071705534971,1,0.718584071999885
89,160,FarHighNarrow,0.2,0.15,0.1,0.0063095734448019285,0,0.692553418999978
89,161,FarLowWide,0.03,0.25,0.5,0.01995262314968879,0,0.9920143980002649
89,162,Constant_null,0.1,0.1,0.1,0.1,1,0.6301452620000418
89,163,ThreeLinesControl,0.0,0.0,0.1,0.009999999999999995,0,99
89,164,FarHighWide,0.5,0.25,0.03,0.00398107170553497,0,0.4713731589999952
89,165,Constant,0.1,0.1,0.1,0.0063095734448019285,0,99
89,166,ThreeLinesControl,0.0,0.0,0.1,0.012589254117941666,0,0.4116349819996685
89,167,FarLowWide,0.03,0.25,0.5,0.025118864315095794,1,0.633988620999844
89,168,FarLowNarrow,0.1,0.15,0.2,0.012589254117941666,1,0.5113699200001065
89,169,ThreeLinesControl,0.0,0.0,0.1,0.015848931924611127,1,0.39704491000020425
89,170,FarHighWide,0.5,0.25,0.03,0.00501187233627272,0,0.5712910499996724
89,171,ThreeLinesControl_null,0.0,0.0,0.1,0.05011872336272722,1,0.5371538579997832
89,172,FarLowNarrow,0.1,0.15,0.2,0.009999999999999995,0,0.43190613900014796
89,173,FarLowWide,0.03,0.25,0.5,0.01995262314968879,0,0.36725806100002956
89,174,FarHighNarrow,0.2,0.15,0.1,0.00794328234724281,0,0.6374362319997999
89,175,FarHighWide,0.5,0.25,0.03,0.006309573444801929,1,0.519906138999886
89,176,FarHighNarrow_null,0.2,0.15,0.1,0.07943282347242814,0,0.5179762069997196
89,177,FarHighWide,0.5,0.25,0.03,0.00501187233627272,0,0.9965076329999647
89,178,FarHighNarrow,0.2,0.15,0.1,0.009999999999999995,0,99
89,179,Constant,0.1,0.1,0.1,0.00794328234724281,0,0.7254106469999897
89,180,Constant,0.1,0.1,0.1,0.009999999999999995,0,99
89,181,FarHighNarrow,0.2,0.15,0.1,0.012589254117941666,1,0.9759104529998694
89,182,Constant,0.1,0.1,0.1,0.012589254117941666,1,0.5181919400001789
89,183,FarLowWide,0.03,0.25,0.5,0.025118864315095794,1,0.4510430010000164
89,184,Constant_null,0.1,0.1,0.1,0.07943282347242815,1,0.38600766199988357
89,185,FarLowNarrow_null,0.1,0.15,0.2,0.06309573444801932,1,0.8074084019999646
89,186,FarLowNarrow,0.1,0.15,0.2,0.012589254117941666,0,0.5337386979999792
89,187,FarLowWide,0.03,0.25,0.5,0.01995262314968879,0,99
89,188,FarLowWide,0.03,0.25,0.5,0.025118864315095794,1,0.2980523030000768
89,189,ThreeLinesControl,0.0,0.0,0.1,0.012589254117941666,0,0.5848211229999833
89,190,Constant,0.1,0.1,0.1,0.009999999999999995,1,0.5902271209997707
89,191,FarLowNarrow,0.1,0.15,0.2,0.015848931924611127,1,0.4091709060003268
89,192,FarHighWide,0.5,0.25,0.03,0.006309573444801929,0,0.511434157000167
89,193,FarLowWide,0.03,0.25,0.5,0.01995262314968879,1,0.5095047179997891
89,194,ThreeLinesControl_null,0.0,0.0,0.1,0.03981071705534971,1,0.7289739180000652
89,195,FarHighNarrow,0.2,0.15,0.1,0.009999999999999995,0,0.7184609920000185
89,196,FarHighWide_null,0.5,0.25,0.03,0.1,1,0.8369636570000694
89,197,FarLowNarrow,0.1,0.15,0.2,0.012589254117941666,0,0.7213905470002828
89,198,ThreeLinesControl,0.0,0.0,0.1,0.015848931924611127,0,0.5994838400001754
89,199,FarLowNarrow,0.1,0.15,0.2,0.015848931924611127,1,0.4213893010000902
89,200,ThreeLinesControl,0.0,0.0,0.1,0.01995262314968879,1,0.48265872499996476
89,201,Constant,0.1,0.1,0.1,0.00794328234724281,1,0.8809877960002268
89,202,Constant,0.1,0.1,0.1,0.0063095734448019285,0,0.6150640930000009
89,203,FarHighWide,0.5,0.25,0.03,0.007943282347242812,1,0.4053981830002158
89,204,Constant,0.1,0.1,0.1,0.00794328234724281,1,0.42718318299966995
89,205,Constant,0.1,0.1,0.1,0.0063095734448019285,1,0.4099161389999608
89,206,FarLowWide,0.03,0.25,0.5,0.015848931924611127,0,0.5602736209998511
89,207,ThreeLinesControl,0.0,0.0,0.1,0.015848931924611127,1,0.3754036100003759
89,208,FarHighNarrow,0.2,0.15,0.1,0.012589254117941666,1,0.42576765300009356
89,209,FarLowNarrow,0.1,0.15,0.2,0.012589254117941666,1,0.31877841499999704
89,210,FarLowNarrow,0.1,0.15,0.2,0.009999999999999995,1,0.43417081299958227
89,211,FarHighNarrow,0.2,0.15,0.1,0.009999999999999995,1,0.38392397000006895
89,212,FarHighNarrow,0.2,0.15,0.1,0.00794328234724281,1,0.5025215850000677
89,213,FarHighWide,0.5,0.25,0.03,0.006309573444801929,1,0.2182064660000833
89,214,Constant,0.1,0.1,0.1,0.005011872336272719,1,0.20076054699984525
89,215,FarLowNarrow_null,0.1,0.15,0.2,0.05011872336272722,1,0.3431006539999544
89,216,ThreeLinesControl,0.0,0.0,0.1,0.012589254117941666,0,0.24512575400012793
89,217,FarHighNarrow,0.2,0.15,0.1,0.0063095734448019285,0,0.4512886959996649
89,218,FarHighNarrow,0.2,0.15,0.1,0.00794328234724281,0,0.5775037499997779
89,219,Constant,0.1,0.1,0.1,0.00398107170553497,0,0.44786302300008174
89,220,FarHighNarrow_null,0.2,0.15,0.1,0.09999999999999999,1,0.45348806300034994
89,221,FarLowWide,0.03,0.25,0.5,0.01995262314968879,0,0.5884247300000425
89,222,FarHighNarrow_null,0.2,0.15,0.1,0.07943282347242814,1,0.6327291099996728
89,223,Constant_null,0.1,0.1,0.1,0.06309573444801932,1,0.6961586430002171
89,224,FarLowWide,0.03,0.25,0.5,0.025118864315095794,0,0.5551704939998672
89,225,FarHighNarrow,0.2,0.15,0.1,0.009999999999999995,0,0.45740994699963267
89,226,ThreeLinesControl,0.0,0.0,0.1,0.015848931924611127,0,0.4119718219999413
89,227,FarLowNarrow_null,0.1,0.15,0.2,0.03981071705534971,1,0.31478361900008167
89,228,ThreeLinesControl,0.0,0.0,0.1,0.01995262314968879,1,0.312800110000353
89,229,Constant_null,0.1,0.1,0.1,0.05011872336272722,0,0.3406121080001867
89,230,ThreeLinesControl,0.0,0.0,0.1,0.015848931924611127,1,0.3551765129996056
89,231,FarHighNarrow,0.2,0.15,0.1,0.012589254117941666,1,0.673289061000105
89,232,ThreeLinesControl,0.0,0.0,0.1,0.012589254117941666,0,0.9752355149998948
89,233,FarHighWide,0.5,0.25,0.03,0.00501187233627272,0,0.6771425649999401
89,234,FarHighNarrow,0.2,0.15,0.1,0.009999999999999995,1,0.4911961660000088
89,235,ThreeLinesControl,0.0,0.0,0.1,0.015848931924611127,1,0.5624201179998636
89,236,ThreeLinesControl,0.0,0.0,0.1,0.012589254117941666,0,0.44768383600012385
89,237,FarHighNarrow,0.2,0.15,0.1,0.00794328234724281,0,0.50021540500029
89,238,Constant,0.1,0.1,0.1,0.00501187233627272,0,0.5459882770001059
89,239,FarLowNarrow,0.1,0.15,0.2,0.00794328234724281,0,0.6725489200002812
89,240,FarLowNarrow,0.1,0.15,0.2,0.009999999999999995,0,0.8897613300000558
89,241,FarHighWide,0.5,0.25,0.03,0.006309573444801929,1,0.727950650999901
89,242,ThreeLinesControl_null,0.0,0.0,0.1,0.031622776601683784,1,0.7196090439997533
89,243,FarHighNarrow,0.2,0.15,0.1,0.009999999999999995,0,0.4053006189997177
89,244,FarHighNarrow,0.2,0.15,0.1,0.012589254117941666,0,0.46932543799994164
89,245,Constant_null,0.1,0.1,0.1,0.06309573444801932,1,0.2966934810001476
89,246,FarHighWide,0.5,0.25,0.03,0.00501187233627272,0,0.326389201999973
89,247,FarHighNarrow,0.2,0.15,0.1,0.015848931924611127,0,0.3009240800001862
89,248,Constant_null,0.1,0.1,0.1,0.05011872336272722,1,0.48010542800011535
89,249,Constant,0.1,0.1,0.1,0.006309573444801929,0,0.40609558100004506
89,250,ThreeLinesControl,0.0,0.0,0.1,0.015848931924611127,0,0.47342657099989083
89,251,FarLowNarrow,0.1,0.15,0.2,0.012589254117941666,1,0.43113602199991874
89,252,FarLowNarrow,0.1,0.15,0.2,0.009999999999999995,1,0.49358378299984906
89,253,FarHighNarrow,0.2,0.15,0.1,0.01995262314968879,1,0.3224988160000066
89,254,FarHighNarrow,0.2,0.15,0.1,0.015848931924611127,1,0.3035344579998309
89,255,FarLowWide,0.03,0.25,0.5,0.031622776601683784,1,0.2860313099999985
89,256,ThreeLinesControl,0.0,0.0,0.1,0.01995262314968879,1,0.3800389380003253
89,257,FarHighWide,0.5,0.25,0.03,0.006309573444801929,1,0.2901470850001715
89,258,FarLowNarrow,0.1,0.15,0.2,0.00794328234724281,0,0.38449090599988267
89,259,FarLowNarrow,0.1,0.15,0.2,0.009999999999999995,0,0.3829996839999694
89,260,Constant,0.1,0.1,0.1,0.007943282347242812,0,0.39804971600005956
89,261,FarLowWide,0.03,0.25,0.5,0.02511886431509579,1,0.2740221770000062
89,262,Constant_null,0.1,0.1,0.1,0.03981071705534971,1,0.6720979279998573
89,263,FarHighNarrow_null,0.2,0.15,0.1,0.06309573444801932,0,0.4142368590000842
89,264,FarLowNarrow,0.1,0.15,0.2,0.012589254117941666,1,0.3453227949999018
89,265,FarLowWide,0.03,0.25,0.5,0.01995262314968879,1,0.4796557810000195
89,266,FarHighNarrow,0.2,0.15,0.1,0.012589254117941666,1,0.37250693300029525
89,267,FarHighWide,0.5,0.25,0.03,0.00501187233627272,1,0.3048474850002094
89,268,Constant,0.1,0.1,0.1,0.009999999999999997,1,0.4139341609998155
89,269,ThreeLinesControl,0.0,0.0,0.1,0.015848931924611127,1,0.45224506699969425
89,270,FarLowWide,0.03,0.25,0.5,0.015848931924611127,1,0.4094600530002026
89,271,Constant,0.1,0.1,0.1,0.007943282347242812,1,0.39939733100027297
89,272,FarHighNarrow,0.2,0.15,0.1,0.009999999999999995,0,0.5336261739998918
89,273,FarHighNarrow,0.2,0.15,0.1,0.012589254117941666,0,0.3557150520000505
89,274,FarLowNarrow,0.1,0.15,0.2,0.009999999999999995,0,0.3699511350000648
89,275,Constant,0.1,0.1,0.1,0.006309573444801929,0,0.44810970899970926
89,276,FarLowWide,0.03,0.25,0.5,0.012589254117941666,1,0.4152709899999536
89,277,FarHighWide,0.5,0.25,0.03,0.00398107170553497,0,0.5657108959999277
89,278,FarLowNarrow,0.1,0.15,0.2,0.012589254117941666,0,0.353552597000089
89,279,Constant,0.1,0.1,0.1,0.007943282347242812,0,0.2235520239996731
89,280,FarLowNarrow,0.1,0.15,0.2,0.015848931924611127,0,0.15490263499987122
89,281,Constant,0.1,0.1,0.1,0.009999999999999997,0,0.21676434999972116
89,282,FarHighWide,0.5,0.25,0.03,0.00501187233627272,0,0.5031775070001459
89,283,FarLowWide,0.03,0.25,0.5,0.009999999999999995,0,0.34624810900004377
89,284,FarHighNarrow_null,0.2,0.15,0.1,0.07943282347242814,0,99
89,285,FarHighNarrow,0.2,0.15,0.1,0.015848931924611127,0,0.30261084999983723
89,286,FarLowWide,0.03,0.25,0.5,0.012589254117941666,0,0.37955079900029887
89,287,FarLowNarrow,0.1,0.15,0.2,0.01995262314968879,0,0.3776998330004062
89,288,Constant,0.1,0.1,0.1,0.012589254117941668,1,0.24795904500024335
89,289,FarHighWide,0.5,0.25,0.03,0.006309573444801929,1,0.29412680299992644
89,290,FarLowNarrow,0.1,0.15,0.2,0.025118864315095794,1,0.29215412199982893
89,291,FarHighWide,0.5,0.25,0.03,0.00501187233627272,1,0.25893500800020774
89,292,ThreeLinesControl,0.0,0.0,0.1,0.012589254117941666,1,0.40097788600041895
89,293,Constant_null,0.1,0.1,0.1,0.031622776601683784,1,0.3766976900001282
89,294,FarLowWide,0.03,0.25,0.5,0.015848931924611127,0,0.3159013290000985
89,295,FarLowNarrow_null,0.1,0.15,0.2,0.031622776601683784,1,0.4981425100004344
89,296,Constant,0.1,0.1,0.1,0.009999999999999997,0,0.3590611100003116
89,297,FarLowNarrow,0.1,0.15,0.2,0.01995262314968879,1,0.2991998299999068
89,298,Constant,0.1,0.1,0.1,0.012589254117941668,1,0.3205394910000905
89,299,ThreeLinesControl,0.0,0.0,0.1,0.009999999999999995,0,0.3312054640000497
89,300,FarHighNarrow,0.2,0.15,0.1,0.01995262314968879,0,0.30579767800008995
89,301,FarLowNarrow,0.1,0.15,0.2,0.015848931924611127,1,0.25594376099979854
89,302,FarHighNarrow,0.2,0.15,0.1,0.025118864315095794,1,0.21406955699967511
89,303,FarHighNarrow_null,0.2,0.15,0.1,0.09999999999999999,0,0.29909549100011645
89,304,Constant,0.1,0.1,0.1,0.009999999999999997,1,0.31315765899989856
89,305,FarHighWide,0.5,0.25,0.03,0.00398107170553497,1,0.3595296190001136
89,306,Constant,0.1,0.1,0.1,0.007943282347242812,0,0.30953846000011254
89,307,ThreeLinesControl,0.0,0.0,0.1,0.012589254117941666,1,0.1401088869997693
89,308,ThreeLinesControl,0.0,0.0,0.1,0.009999999999999995,1,0.2193796379997366
89,309,FarLowWide,0.03,0.25,0.5,0.01995262314968879,1,0.10536385799969139
89,310,Constant,0.1,0.1,0.1,0.009999999999999997,1,0.24523458900011974
89,311,ThreeLinesControl,0.0,0.0,0.1,0.00794328234724281,1,0.28336035499978607
89,312,FarLowNarrow,0.1,0.15,0.2,0.012589254117941666,1,0.2484081080001488
89,313,FarHighNarrow,0.2,0.15,0.1,0.01995262314968879,1,0.3555962619998354
89,314,FarHighNarrow,0.2,0.15,0.1,0.015848931924611127,1,0.29658208599994396
89,315,FarLowNarrow,0.1,0.15,0.2,0.009999999999999995,1,0.37275135200025034
89,316,FarHighNarrow,0.2,0.15,0.1,0.012589254117941666,0,99
89,317,Constant_null,0.1,0.1,0.1,0.02511886431509579,0,1.0722627579998516
89,318,ThreeLinesControl,0.0,0.0,0.1,0.0063095734448019285,0,99
89,319,Constant,0.1,0.1,0.1,0.007943282347242812,0,0.17261356400013028
89,320,ThreeLinesControl_null,0.0,0.0,0.1,0.02511886431509579,1,0.24265482200007682
89,321,ThreeLinesControl,0.0,0.0,0.1,0.00794328234724281,0,0.255929919999744
89,322,FarLowNarrow,0.1,0.15,0.2,0.00794328234724281,0,0.341934721999678
89,323,FarLowWide,0.03,0.25,0.5,0.015848931924611127,0,0.3161913449998792
89,324,FarHighWide,0.5,0.25,0.03,0.0031622776601683772,0,0.29040801100018143
89,325,FarHighWide,0.5,0.25,0.03,0.00398107170553497,1,0.41740850199994384
89,326,ThreeLinesControl,0.0,0.0,0.1,0.009999999999999995,1,0.7014515900000333
89,327,FarHighWide,0.5,0.25,0.03,0.0031622776601683772,1,0.4267097090000789
89,328,FarHighNarrow,0.2,0.15,0.1,0.015848931924611127,1,0.36885325599996577
89,329,FarHighNarrow,0.2,0.15,0.1,0.012589254117941666,1,0.6040621649999594
89,330,FarLowWide,0.03,0.25,0.5,0.01995262314968879,1,0.4101644750003288
89,331,Constant,0.1,0.1,0.1,0.009999999999999997,1,0.28028739799992763
89,332,FarHighNarrow_null,0.2,0.15,0.1,0.1,0,99
89,333,FarLowWide,0.03,0.25,0.5,0.015848931924611127,1,0.3932453150000583
89,334,ThreeLinesControl,0.0,0.0,0.1,0.00794328234724281,0,99
89,335,FarHighNarrow,0.2,0.15,0.1,0.009999999999999995,0,0.5257283859996278
89,336,ThreeLinesControl_null,0.0,0.0,0.1,0.01995262314968879,0,99
89,337,FarLowNarrow,0.1,0.15,0.2,0.009999999999999995,0,99
89,338,FarHighWide,0.5,0.25,0.03,0.002511886431509578,0,0.5112375879998581
89,339,ThreeLinesControl,0.0,0.0,0.1,0.009999999999999995,0,0.2691515320002509
89,340,FarLowNarrow,0.1,0.15,0.2,0.012589254117941666,0,0.44320327400009774
89,341,FarLowNarrow,0.1,0.15,0.2,0.015848931924611127,0,0.4418967060000796
89,342,FarLowNarrow,0.1,0.15,0.2,0.01995262314968879,0,0.5613969109999744
89,343,FarHighWide,0.5,0.25,0.03,0.0031622776601683772,0,0.41218099700017774
89,344,FarHighNarrow,0.2,0.15,0.1,0.012589254117941666,0,0.31415787500009174
89,345,ThreeLinesControl,0.0,0.0,0.1,0.012589254117941666,0,0.445554230000198
89,346,FarHighWide,0.5,0.25,0.03,0.00398107170553497,1,0.31548723800005973
89,347,FarHighWide,0.5,0.25,0.03,0.0031622776601683772,1,0.5201507269998729
89,348,FarHighNarrow,0.2,0.15,0.1,0.015848931924611127,1,0.4037869429998864
89,349,Constant,0.1,0.1,0.1,0.007943282347242812,1,0.28198650299964356
89,350,FarLowNarrow,0.1,0.15,0.2,0.025118864315095794,1,0.3200570249996417
89,351,ThreeLinesControl,0.0,0.0,0.1,0.015848931924611127,1,0.35027320400013195
89,352,FarLowWide,0.03,0.25,0.5,0.012589254117941666,1,0.35652031400013584
89,353,FarLowWide,0.03,0.25,0.5,0.009999999999999995,1,0.3867459010002676
89,354,FarLowWide,0.03,0.25,0.5,0.00794328234724281,0,0.4727736240001832
89,355,Constant,0.1,0.1,0.1,0.006309573444801929,0,0.3498375960002704
89,356,ThreeLinesControl,0.0,0.0,0.1,0.012589254117941666,0,0.40441177000002426
89,357,Constant,0.1,0.1,0.1,0.007943282347242812,1,0.3862166310000248
89,358,FarLowNarrow,0.1,0.15,0.2,0.01995262314968879,1,0.2654934169995613
89,359,Constant,0.1,0.1,0.1,0.006309573444801929,1,0.33233174799988774
89,360,FarHighNarrow,0.2,0.15,0.1,0.012589254117941666,0,0.8402924170000006
89,361,FarHighNarrow,0.2,0.15,0.1,0.015848931924611127,0,0.4459438409999166
89,362,FarLowNarrow,0.1,0.15,0.2,0.015848931924611127,0,0.38079329799984407
89,363,FarLowNarrow,0.1,0.15,0.2,0.01995262314968879,0,0.3001239369996256
89,364,FarHighWide,0.5,0.25,0.03,0.002511886431509578,0,0.3707403339999473
89,365,Constant,0.1,0.1,0.1,0.00501187233627272,0,0.4608781150000141
89,366,FarLowNarrow_null,0.1,0.15,0.2,0.02511886431509579,1,0.4269893279997632
89,367,FarLowWide,0.03,0.25,0.5,0.009999999999999995,0,0.4623337419998279
89,368,FarLowNarrow,0.1,0.15,0.2,0.025118864315095794,1,0.5722937639998236
89,369,FarHighWide,0.5,0.25,0.03,0.0031622776601683772,1,0.3384833499999331
89,370,ThreeLinesControl,0.0,0.0,0.1,0.015848931924611127,1,0.6065801579998151
89,371,FarHighNarrow,0.2,0.15,0.1,0.01995262314968879,1,0.4983251109997582
89,372,FarHighWide,0.5,0.25,0.03,0.002511886431509578,1,0.5200381639997431
89,373,Constant,0.1,0.1,0.1,0.006309573444801929,1,0.5179689680003321
89,374,FarHighWide,0.5,0.25,0.03,0.001995262314968878,1,0.5720740520000618
89,375,FarHighNarrow,0.2,0.15,0.1,0.015848931924611127,1,0.754169388000264
89,376,Constant,0.1,0.1,0.1,0.00501187233627272,1,0.4565258890002042
89,377,FarHighNarrow,0.2,0.15,0.1,0.012589254117941666,0,0.5185813890002464
89,378,Constant,0.1,0.1,0.1,0.00398107170553497,0,0.5239912649999496
89,379,FarLowNarrow,0.1,0.15,0.2,0.01995262314968879,1,0.5378729919998477
89,380,ThreeLinesControl,0.0,0.0,0.1,0.012589254117941666,1,0.5611422659999334
89,381,ThreeLinesControl,0.0,0.0,0.1,0.009999999999999995,1,0.4763346569998248
89,382,Constant,0.1,0.1,0.1,0.00501187233627272,1,0.1702161570001408
89,383,FarLowNarrow,0.1,0.15,0.2,0.015848931924611127,1,0.2856488070001433
89,384,ThreeLinesControl,0.0,0.0,0.1,0.00794328234724281,1,0.363294412000414
89,385,FarLowNarrow_null,0.1,0.15,0.2,0.01995262314968879,0,0.4339160750000701
89,386,ThreeLinesControl,0.0,0.0,0.1,0.0063095734448019285,0,0.437840203000178
89,387,Constant_null,0.1,0.1,0.1,0.031622776601683784,1,0.5951442129999123
89,388,FarLowWide,0.03,0.25,0.5,0.012589254117941666,0,0.4418261050000183
89,389,ThreeLinesControl,0.0,0.0,0.1,0.00794328234724281,0,0.44737584900030924
89,390,ThreeLinesControl_null,0.0,0.0,0.1,0.025118864315095794,1,0.2453813390002324
89,391,FarHighNarrow,0.2,0.15,0.1,0.015848931924611127,0,0.3637018829999761
89,392,FarHighWide,0.5,0.25,0.03,0.0015848931924611121,1,0.6339425289997962
89,393,FarLowNarrow_null,0.1,0.15,0.2,0.025118864315095794,0,0.35180676199979644
89,394,FarHighWide,0.5,0.25,0.03,0.001258925411794166,1,0.30286078799963434
89,395,Constant,0.1,0.1,0.1,0.00398107170553497,0,0.49392034699985743
89,396,FarLowWide,0.03,0.25,0.5,0.015848931924611127,0,0.3783664699999463
89,397,Constant,0.1,0.1,0.1,0.00501187233627272,0,0.39737036799988346
89,398,FarLowNarrow,0.1,0.15,0.2,0.012589254117941666,0,0.419557948000147
89,399,Constant,0.1,0.1,0.1,0.006309573444801929,0,0.3776964109997607
89,400,FarLowWide,0.03,0.25,0.5,0.01995262314968879,0,0.4126914650000799
89,401,FarLowWide,0.03,0.25,0.5,0.025118864315095794,0,0.6592710410000109
89,402,FarHighWide,0.5,0.25,0.03,0.000999999999999999,1,0.5115474609997364
89,403,FarLowWide,0.03,0.25,0.5,0.031622776601683784,1,0.31749286100011886
89,404,FarHighNarrow_null,0.2,0.15,0.1,0.1,0,0.5877753939998911
89,405,FarLowNarrow_null,0.1,0.15,0.2,0.031622776601683784,0,0.3137894720002805
89,406,FarHighWide,0.5,0.25,0.03,0.0007943282347242807,1,0.4079589840002882
89,407,ThreeLinesControl,0.0,0.0,0.1,0.009999999999999995,1,0.41405461599970295
89,408,FarHighWide,0.5,0.25,0.03,0.0006309573444801926,1,0.30857939499992426
89,409,FarLowWide,0.03,0.25,0.5,0.02511886431509579,1,0.35502277200021126
89,410,FarHighWide,0.5,0.25,0.03,0.0005011872336272717,1,0.4250183450003533
89,411,ThreeLinesControl,0.0,0.0,0.1,0.00794328234724281,1,0.6642982759999541
89,412,ThreeLinesControl,0.0,0.0,0.1,0.0063095734448019285,1,0.4853077160000794
89,413,FarLowWide,0.03,0.25,0.5,0.01995262314968879,1,0.39997551599981307
89,414,FarLowNarrow,0.1,0.15,0.2,0.015848931924611127,1,0.39808651799967265
89,415,FarHighNarrow,0.2,0.15,0.1,0.01995262314968879,1,0.276205084999674
89,416,FarHighNarrow_null,0.2,0.15,0.1,0.1,0,0.5037908959998276
89,417,FarHighNarrow,0.2,0.15,0.1,0.015848931924611127,1,0.396905658000378
89,418,FarLowWide,0.03,0.25,0.5,0.015848931924611127,1,0.44270659299991166
89,419,FarLowWide,0.03,0.25,0.5,0.012589254117941666,0,0.7918881599998713
89,420,FarLowNarrow,0.1,0.15,0.2,0.012589254117941666,1,0.5821688740002173
89,421,FarHighNarrow,0.2,0.15,0.1,0.012589254117941666,0,99
89,422,ThreeLinesControl,0.0,0.0,0.1,0.005011872336272719,1,0.28924609700015935
89,423,FarLowWide,0.03,0.25,0.5,0.015848931924611127,1,0.39143733900027655
89,424,FarLowWide,0.03,0.25,0.5,0.012589254117941666,1,0.3031714280000415
89,425,ThreeLinesControl,0.0,0.0,0.1,0.00398107170553497,0,99
89,426,FarLowNarrow_null,0.1,0.15,0.2,0.03981071705534971,0,99
89,427,Constant_null,0.1,0.1,0.1,0.02511886431509579,0,0.30416470199998
89,428,FarLowWide,0.03,0.25,0.5,0.009999999999999995,1,0.39816722399973514
89,429,FarLowWide,0.03,0.25,0.5,0.00794328234724281,0,99
89,430,FarLowWide_null,0.03,0.25,0.5,0.031622776601683784,0,99
89,431,FarLowNarrow_null,0.1,0.15,0.2,0.05011872336272721,1,0.2846878570003355
89,432,FarHighWide,0.5,0.25,0.03,0.00039810717055349676,1,0.5987403519998225
89,433,FarHighNarrow_null,0.2,0.15,0.1,0.1,0,0.3899151969999366
89,434,FarLowWide,0.03,0.25,0.5,0.009999999999999995,0,0.7628025330000128
89,435,FarHighNarrow,0.2,0.15,0.1,0.015848931924611127,0,0.32874778799987325
89,436,FarHighNarrow,0.2,0.15,0.1,0.01995262314968879,1,0.42236256999967736
89,437,FarHighWide,0.5,0.25,0.03,0.0003162277660168375,1,0.31638015599992286
89,438,ThreeLinesControl,0.0,0.0,0.1,0.00501187233627272,0,0.7146277260003444
89,439,FarHighNarrow,0.2,0.15,0.1,0.015848931924611127,0,0.4958819290000065
89,440,Constant,0.1,0.1,0.1,0.007943282347242812,1,0.439313575000142
89,441,FarLowNarrow,0.1,0.15,0.2,0.009999999999999995,0,0.3900960819996726
89,442,Constant,0.1,0.1,0.1,0.006309573444801929,0,0.4446781009996812
89,443,Constant,0.1,0.1,0.1,0.007943282347242812,1,0.3284686760002842
89,444,Constant,0.1,0.1,0.1,0.006309573444801929,1,0.3105032090002169
89,445,FarHighNarrow,0.2,0.15,0.1,0.01995262314968879,1,0.30743743999983053
89,446,FarLowNarrow_null,0.1,0.15,0.2,0.03981071705534971,1,0.5437346909998269
89,447,ThreeLinesControl,0.0,0.0,0.1,0.006309573444801929,0,0.40472709000005125
89,448,FarLowWide,0.03,0.25,0.5,0.012589254117941666,0,0.5438228719999643
89,449,Constant,0.1,0.1,0.1,0.00501187233627272,0,0.3903681309998319
89,450,FarLowNarrow,0.1,0.15,0.2,0.012589254117941666,0,99
89,451,ThreeLinesControl,0.0,0.0,0.1,0.007943282347242812,0,0.5935372559997631
89,452,Constant,0.1,0.1,0.1,0.006309573444801929,0,0.3676368530000218
89,453,FarLowNarrow,0.1,0.15,0.2,0.015848931924611127,0,0.21374022800000603
89,454,FarLowWide,0.03,0.25,0.5,0.015848931924611127,1,0.6921547619999728
89,455,ThreeLinesControl,0.0,0.0,0.1,0.009999999999999997,1,0.23410109599990392
89,456,FarHighNarrow,0.2,0.15,0.1,0.015848931924611127,1,0.2330194749997645
89,457,FarLowNarrow,0.1,0.15,0.2,0.01995262314968879,1,0.3748336079997898
89,458,FarHighWide,0.5,0.25,0.03,0.0002511886431509577,1,0.77414488300019
89,459,FarHighNarrow,0.2,0.15,0.1,0.012589254117941666,1,0.5695656780003446
89,460,FarHighWide,0.5,0.25,0.03,0.00019952623149688769,1,0.318802864999725
89,461,Constant,0.1,0.1,0.1,0.007943282347242812,1,0.33318021499962924
89,462,FarLowWide,0.03,0.25,0.5,0.012589254117941666,1,0.38416380599983313
89,463,FarLowWide,0.03,0.25,0.5,0.009999999999999995,0,0.49423407299991595
89,464,FarLowWide,0.03,0.25,0.5,0.012589254117941666,0,0.37249370800009274
89,465,FarLowNarrow,0.1,0.15,0.2,0.015848931924611127,0,0.3275609919996896
89,466,ThreeLinesControl,0.0,0.0,0.1,0.007943282347242812,1,0.6938085840001804
89,467,ThreeLinesControl,0.0,0.0,0.1,0.006309573444801929,1,0.38683022599980177
89,468,FarHighWide,0.5,0.25,0.03,0.00015848931924611112,1,0.3929996939996272
89,469,FarHighWide_null,0.5,0.25,0.03,0.07943282347242815,0,0.4712858719999531
89,470,FarLowNarrow,0.1,0.15,0.2,0.01995262314968879,1,0.34945046599978014
89,471,FarHighNarrow,0.2,0.15,0.1,0.009999999999999995,1,0.3705351899998277
89,472,ThreeLinesControl,0.0,0.0,0.1,0.00501187233627272,0,0.41631312700019407
89,473,FarHighWide,0.5,0.25,0.03,0.00012589254117941653,0,0.43120709100003296
89,474,FarHighWide,0.5,0.25,0.03,0.00015848931924611112,0,0.37418382899977587
89,475,FarHighNarrow,0.2,0.15,0.1,0.00794328234724281,1,0.6362518040000396
89,476,FarHighWide,0.5,0.25,0.03,0.00019952623149688769,1,0.28932769800030655
89,477,FarLowNarrow,0.1,0.15,0.2,0.015848931924611127,0,99
89,478,Constant_null,0.1,0.1,0.1,0.031622776601683784,1,0.45060995799985903
89,479,ThreeLinesControl,0.0,0.0,0.1,0.006309573444801929,0,0.3914579889997185
89,480,ThreeLinesControl,0.0,0.0,0.1,0.007943282347242812,0,99
89,481,FarLowNarrow,0.1,0.15,0.2,0.01995262314968879,0,0.7944345629998679
89,482,ThreeLinesControl,0.0,0.0,0.1,0.009999999999999997,0,0.6133192929996767
89,483,FarHighWide,0.5,0.25,0.03,0.00015848931924611112,1,0.5155172739996488
89,484,FarLowNarrow_null,0.1,0.15,0.2,0.031622776601683784,1,0.5933918359996824
89,485,FarHighNarrow,0.2,0.15,0.1,0.0063095734448019285,0,0.3355906199999481
89,486,ThreeLinesControl,0.0,0.0,0.1,0.012589254117941668,0,0.27784273600036613
89,487,FarHighNarrow,0.2,0.15,0.1,0.00794328234724281,0,0.2831734900000811
89,488,FarHighWide,0.5,0.25,0.03,0.00012589254117941653,0,0.2501319670000157
89,489,FarLowWide,0.03,0.25,0.5,0.015848931924611127,1,0.31929350399968826
89,490,FarHighNarrow,0.2,0.15,0.1,0.009999999999999995,0,0.35740219799981787
89,491,Constant,0.1,0.1,0.1,0.006309573444801929,0,99
89,492,FarLowWide,0.03,0.25,0.5,0.012589254117941666,0,0.5074043829999937
89,493,FarLowNarrow,0.1,0.15,0.2,0.025118864315095794,1,0.4060676450003484
89,494,ThreeLinesControl,0.0,0.0,0.1,0.01584893192461113,1,0.41999479700007214
89,495,FarLowNarrow,0.1,0.15,0.2,0.01995262314968879,1,0.3058702779999294
89,496,FarHighWide,0.5,0.25,0.03,0.00015848931924611112,1,0.3491569740003797
89,497,ThreeLinesControl_null,0.0,0.0,0.1,0.01995262314968879,1,0.34755763599969214
89,498,ThreeLinesControl,0.0,0.0,0.1,0.012589254117941668,0,0.3777594640000643
89,499,Constant,0.1,0.1,0.1,0.007943282347242812,1,0.3093674159999864
89,500,FarLowWide,0.03,0.25,0.5,0.015848931924611127,1,0.25087587999996686
89,501,ThreeLinesControl,0.0,0.0,0.1,0.01584893192461113,1,0.23308068000005733
89,502,ThreeLinesControl,0.0,0.0,0.1,0.012589254117941668,1,0.2793797000003906
89,503,ThreeLinesControl,0.0,0.0,0.1,0.009999999999999997,1,0.301310722999915
89,504,FarLowWide,0.03,0.25,0.5,0.012589254117941666,1,0.6665600669998639
89,505,Constant,0.1,0.1,0.1,0.006309573444801929,1,0.4083136489998651
89,506,FarLowWide,0.03,0.25,0.5,0.009999999999999995,0,0.7269838319998598
89,507,Constant,0.1,0.1,0.1,0.00501187233627272,0,0.45308653800020693
89,508,ThreeLinesControl,0.0,0.0,0.1,0.007943282347242812,0,0.45233535800025493
89,509,ThreeLinesControl,0.0,0.0,0.1,0.009999999999999997,0,99
89,510,FarLowNarrow,0.1,0.15,0.2,0.015848931924611127,1,0.3105370779999248
89,511,Constant,0.1,0.1,0.1,0.006309573444801929,1,0.43655586900013077
89,512,ThreeLinesControl,0.0,0.0,0.1,0.012589254117941668,1,0.5677990090002822
89,513,FarHighNarrow,0.2,0.15,0.1,0.012589254117941666,1,0.3818076969996582
89,514,Constant,0.1,0.1,0.1,0.00501187233627272,0,0.8588654840000345
89,515,FarLowWide,0.03,0.25,0.5,0.012589254117941666,0,0.3744191639998462
89,516,FarHighWide,0.5,0.25,0.03,0.00012589254117941653,0,0.32457149999981993
89,517,FarLowWide,0.03,0.25,0.5,0.015848931924611127,1,0.37145842200015977
89,518,FarHighWide,0.5,0.25,0.03,0.00015848931924611112,1,0.36069314299993493
89,519,FarLowWide,0.03,0.25,0.5,0.012589254117941666,0,0.6065820339999846
89,520,FarHighWide,0.5,0.25,0.03,0.00012589254117941653,1,0.492686391999996
89,521,FarLowNarrow,0.1,0.15,0.2,0.012589254117941666,1,0.25933723300022393
89,522,FarLowWide,0.03,0.25,0.5,0.015848931924611127,1,0.47323733300027016
89,523,FarHighNarrow_null,0.2,0.15,0.1,0.1,0,0.4478087840002445
89,524,FarLowWide,0.03,0.25,0.5,0.012589254117941666,0,0.5735492089997933
89,525,ThreeLinesControl,0.0,0.0,0.1,0.009999999999999997,0,0.28373402200031705
89,526,FarHighWide,0.5,0.25,0.03,9.999999999999984e-05,1,0.3357033880001836
89,527,FarHighNarrow,0.2,0.15,0.1,0.009999999999999995,1,0.3566516320001938
89,528,FarLowWide,0.03,0.25,0.5,0.015848931924611127,0,0.32297775699998965
89,529,FarLowNarrow,0.1,0.15,0.2,0.009999999999999995,0,0.43025950100036425
89,530,Constant,0.1,0.1,0.1,0.006309573444801929,0,0.42829799299988736
89,531,FarHighWide,0.5,0.25,0.03,7.943282347242802e-05,1,0.48073174699993615
89,532,FarHighNarrow,0.2,0.15,0.1,0.00794328234724281,1,0.30266606200029855
89,533,ThreeLinesControl,0.0,0.0,0.1,0.012589254117941668,1,0.3002812099998664
89,534,Constant,0.1,0.1,0.1,0.007943282347242812,1,0.2819442540003365
89,535,FarHighWide,0.5,0.25,0.03,6.309573444801921e-05,1,0.3201377870000215
89,536,FarLowNarrow,0.1,0.15,0.2,0.012589254117941666,0,99
89,537,FarLowNarrow,0.1,0.15,0.2,0.015848931924611127,0,0.03628508600013447
89,538,FarHighWide,0.5,0.25,0.03,5.0118723362727136e-05,1,0.23462813300011476
89,539,ThreeLinesControl,0.0,0.0,0.1,0.009999999999999997,1,0.3053546199998891
89,540,FarHighNarrow,0.2,0.15,0.1,0.0063095734448019285,1,0.3186960889997863
89,541,ThreeLinesControl,0.0,0.0,0.1,0.007943282347242812,1,0.3335095630000069
89,542,FarHighNarrow_null,0.2,0.15,0.1,0.1,1,0.6961228860000119
89,543,FarLowNarrow,0.1,0.15,0.2,0.01995262314968879,0,0.3268155350001507
89,544,ThreeLinesControl,0.0,0.0,0.1,0.006309573444801929,1,0.23602525399974184
89,545,Constant,0.1,0.1,0.1,0.006309573444801929,1,0.37529828300012014
89,546,FarLowNarrow,0.1,0.15,0.2,0.025118864315095794,1,0.34943711899995833
89,547,Constant,0.1,0.1,0.1,0.00501187233627272,1,0.41824851699993815
89,548,ThreeLinesControl,0.0,0.0,0.1,0.00501187233627272,1,0.4400783340001908
89,549,FarHighNarrow_null,0.2,0.15,0.1,0.07943282347242815,1,0.40515325700016547
89,550,Constant,0.1,0.1,0.1,0.00398107170553497,0,0.32332378899991454
89,551,FarHighWide,0.5,0.25,0.03,3.981071705534965e-05,0,0.4256893609999679
89,552,Constant,0.1,0.1,0.1,0.00501187233627272,0,0.31153646599977947
89,553,Constant_null,0.1,0.1,0.1,0.02511886431509579,1,0.5019166600000062
89,554,FarLowWide_null,0.03,0.25,0.5,0.03981071705534971,1,0.27595838799970807
89,555,FarHighWide,0.5,0.25,0.03,5.0118723362727136e-05,0,0.3781614059998901
89,556,Constant,0.1,0.1,0.1,0.006309573444801929,0,0.3434022350002124
89,557,Constant,0.1,0.1,0.1,0.007943282347242812,1,0.2867894629998773
89,558,FarHighNarrow,0.2,0.15,0.1,0.005011872336272719,1,0.25852038299990454
89,559,FarLowWide_null,0.03,0.25,0.5,0.031622776601683784,1,0.4396309809999366
89,560,ThreeLinesControl,0.0,0.0,0.1,0.00398107170553497,0,0.3736967669997284
89,561,FarLowWide,0.03,0.25,0.5,0.01995262314968879,0,0.3689645589997781
89,562,ThreeLinesControl,0.0,0.0,0.1,0.00501187233627272,0,0.4227947630001836
89,563,FarLowNarrow,0.1,0.15,0.2,0.01995262314968879,0,0.38928849400008403
89,564,FarLowNarrow,0.1,0.15,0.2,0.025118864315095794,1,0.42495612300035646
89,565,Constant,0.1,0.1,0.1,0.006309573444801929,1,0.41558994299975893
89,566,FarLowNarrow_null,0.1,0.15,0.2,0.02511886431509579,0,0.43768428500015943
89,567,ThreeLinesControl,0.0,0.0,0.1,0.006309573444801929,0,0.5238553929998488
89,568,FarLowWide,0.03,0.25,0.5,0.025118864315095794,0,0.29023539699983303
89,569,Constant,0.1,0.1,0.1,0.00501187233627272,0,0.44827932699990924
89,570,FarLowNarrow,0.1,0.15,0.2,0.01995262314968879,0,0.3342878949997612
89,571,FarHighWide,0.5,0.25,0.03,6.309573444801921e-05,0,99
89,572,FarHighNarrow,0.2,0.15,0.1,0.00398107170553497,1,0.3152048649999415
89,573,FarLowWide,0.03,0.25,0.5,0.031622776601683784,1,0.23126596800011612
89,574,FarHighWide,0.5,0.25,0.03,7.943282347242802e-05,1,0.3830332770003224
89,575,Constant,0.1,0.1,0.1,0.006309573444801929,0,0.36206702299978133
89,576,FarHighWide,0.5,0.25,0.03,6.309573444801921e-05,0,0.33605628999976034
89,577,FarHighNarrow,0.2,0.15,0.1,0.0031622776601683772,0,0.3633108980002362
89,578,FarLowNarrow,0.1,0.15,0.2,0.025118864315095794,1,0.5934296619998349
89,579,Constant,0.1,0.1,0.1,0.007943282347242812,1,0.2713784620000297
89,580,Constant,0.1,0.1,0.1,0.006309573444801929,0,0.4596359330002997
89,581,FarHighWide,0.5,0.25,0.03,7.943282347242802e-05,0,99
89,582,ThreeLinesControl,0.0,0.0,0.1,0.007943282347242812,0,0.5195039730001554
89,583,ThreeLinesControl,0.0,0.0,0.1,0.009999999999999997,1,0.23710143300013442
89,584,Constant,0.1,0.1,0.1,0.007943282347242812,1,0.331445881000036
89,585,ThreeLinesControl,0.0,0.0,0.1,0.007943282347242812,0,99
89,586,ThreeLinesControl,0.0,0.0,0.1,0.009999999999999997,0,0.4653940129996954
89,587,ThreeLinesControl,0.0,0.0,0.1,0.012589254117941668,0,0.470773687000019
89,588,Constant,0.1,0.1,0.1,0.006309573444801929,1,0.4665886729999329
89,589,FarLowNarrow,0.1,0.15,0.2,0.01995262314968879,1,0.3708983630003786
89,590,FarHighWide,0.5,0.25,0.03,9.999999999999984e-05,1,0.28023145799988924
89,591,FarHighNarrow_null,0.2,0.15,0.1,0.06309573444801932,0,0.2593768669999008
89,592,Constant,0.1,0.1,0.1,0.00501187233627272,0,0.2726600329997382
89,593,ThreeLinesControl,0.0,0.0,0.1,0.01584893192461113,0,99
89,594,ThreeLinesControl,0.0,0.0,0.1,0.019952623149688792,1,0.34591878399987763
89,595,FarHighWide_null,0.5,0.25,0.03,0.1,0,0.3839888309998969
89,596,Constant,0.1,0.1,0.1,0.006309573444801929,0,0.49320467699999426
89,597,FarLowWide,0.03,0.25,0.5,0.02511886431509579,0,0.41134361300009914
89,598,ThreeLinesControl,0.0,0.0,0.1,0.01584893192461113,1,0.4334360220000235
89,599,FarHighNarrow,0.2,0.15,0.1,0.00398107170553497,1,0.3746656539997275
89,600,FarHighNarrow,0.2,0.15,0.1,0.0031622776601683772,1,0.7039031189997331
89,601,Constant_null,0.1,0.1,0.1,0.01995262314968879,1,0.4752275890000419
89,602,FarHighWide_null,0.5,0.25,0.03,0.1,0,0.39322534099983386
89,603,FarHighNarrow,0.2,0.15,0.1,0.002511886431509578,0,0.4860929850001412
89,604,FarLowNarrow,0.1,0.15,0.2,0.015848931924611127,0,0.40369309000016074
89,605,FarLowNarrow,0.1,0.15,0.2,0.01995262314968879,1,0.3454962069999965
89,606,FarHighWide,0.5,0.25,0.03,7.943282347242802e-05,1,0.3597732310004176
89,607,FarLowNarrow_null,0.1,0.15,0.2,0.031622776601683784,0,0.4459063409999544
89,608,Constant,0.1,0.1,0.1,0.007943282347242812,1,0.5388390920002166
89,609,ThreeLinesControl,0.0,0.0,0.1,0.012589254117941668,1,0.24281470400001126
89,610,FarHighWide,0.5,0.25,0.03,6.309573444801921e-05,0,0.5605202719998488
89,611,FarLowWide,0.03,0.25,0.5,0.031622776601683784,1,0.5266219850000198
89,612,FarHighWide,0.5,0.25,0.03,7.943282347242802e-05,1,0.4436392889997478
89,613,FarHighNarrow,0.2,0.15,0.1,0.0031622776601683772,1,0.44102440199958437
89,614,ThreeLinesControl,0.0,0.0,0.1,0.009999999999999997,0,99
89,615,FarLowNarrow,0.1,0.15,0.2,0.015848931924611127,0,0.5943629909997981
89,616,ThreeLinesControl,0.0,0.0,0.1,0.012589254117941668,0,0.368179740999949
89,617,FarLowWide,0.03,0.25,0.5,0.02511886431509579,0,99
89,618,Constant,0.1,0.1,0.1,0.006309573444801929,1,0.4254452059999494
89,619,Constant,0.1,0.1,0.1,0.00501187233627272,1,0.28780845100027364
89,620,FarHighWide,0.5,0.25,0.03,6.309573444801921e-05,0,0.3487647739998465
89,621,FarHighNarrow,0.2,0.15,0.1,0.002511886431509578,0,0.31511162800006787
89,622,FarLowWide_null,0.03,0.25,0.5,0.02511886431509579,1,0.3694020679999994
89,623,FarLowNarrow,0.1,0.15,0.2,0.01995262314968879,0,0.21523184199986645
89,624,ThreeLinesControl,0.0,0.0,0.1,0.01584893192461113,0,99
89,625,ThreeLinesControl,0.0,0.0,0.1,0.019952623149688792,1,0.49864680200016664
89,626,FarLowNarrow,0.1,0.15,0.2,0.025118864315095794,1,0.2901462579998224
89,627,FarLowNarrow,0.1,0.15,0.2,0.01995262314968879,1,0.3124574399998892
89,628,FarHighWide_null,0.5,0.25,0.03,0.1,0,0.3263963370000056
89,629,FarLowWide,0.03,0.25,0.5,0.031622776601683784,1,0.5312751810001828
89,630,ThreeLinesControl,0.0,0.0,0.1,0.01584893192461113,1,0.3695275540003422
89,631,FarHighNarrow,0.2,0.15,0.1,0.0031622776601683772,1,0.3565726370002267
89,632,FarHighWide,0.5,0.25,0.03,7.943282347242802e-05,1,0.38678968700014593
89,633,Constant,0.1,0.1,0.1,0.00398107170553497,1,0.368851894999807
89,634,FarLowNarrow,0.1,0.15,0.2,0.015848931924611127,1,0.4359077710000747
89,635,FarHighWide,0.5,0.25,0.03,6.309573444801921e-05,1,0.4247631329999422
89,636,ThreeLinesControl,0.0,0.0,0.1,0.012589254117941668,0,99
89,637,FarHighNarrow,0.2,0.15,0.1,0.002511886431509578,0,99
89,638,FarLowWide,0.03,0.25,0.5,0.02511886431509579,0,99
89,639,FarLowNarrow,0.1,0.15,0.2,0.012589254117941666,1,0.32068868099986503
89,640,FarLowNarrow,0.1,0.15,0.2,0.009999999999999995,1,0.4869006740000259
89,641,FarHighNarrow,0.2,0.15,0.1,0.0031622776601683772,1,0.2533550389998709
89,642,FarLowNarrow,0.1,0.15,0.2,0.00794328234724281,1,0.4436088470001778
89,643,FarLowNarrow,0.1,0.15,0.2,0.0063095734448019285,1,0.7628141909999613
89,644,ThreeLinesControl_null,0.0,0.0,0.1,0.015848931924611127,1,0.42462531600040165
89,645,FarHighWide,0.5,0.25,0.03,5.0118723362727136e-05,0,0.2767977329999667
89,646,Constant_null,0.1,0.1,0.1,0.015848931924611127,1,0.25872266799979116
89,647,ThreeLinesControl,0.0,0.0,0.1,0.01584893192461113,0,0.3007909559996733
89,648,FarHighNarrow,0.2,0.15,0.1,0.002511886431509578,0,0.2511376390002624
89,649,ThreeLinesControl,0.0,0.0,0.1,0.019952623149688792,0,0.33742782100034674
89,650,FarHighWide,0.5,0.25,0.03,6.309573444801921e-05,1,0.2440664900000229
89,651,FarLowNarrow,0.1,0.15,0.2,0.005011872336272719,1,0.28267525100000057
89,652,FarHighNarrow,0.2,0.15,0.1,0.0031622776601683772,0,0.4004610390002199
89,653,FarHighWide,0.5,0.25,0.03,5.0118723362727136e-05,0,0.33470040100019105
89,654,Constant,0.1,0.1,0.1,0.0031622776601683772,0,0.21998732000020027
89,655,FarHighNarrow,0.2,0.15,0.1,0.00398107170553497,0,0.3939649260000806
89,656,FarHighWide,0.5,0.25,0.03,6.309573444801921e-05,0,99
89,657,FarHighWide,0.5,0.25,0.03,7.943282347242802e-05,1,0.15842039600011049
89,658,FarHighNarrow,0.2,0.15,0.1,0.00501187233627272,1,0.22145862000024863
89,659,Constant,0.1,0.1,0.1,0.00398107170553497,1,0.24309924599992883
89,660,FarLowNarrow,0.1,0.15,0.2,0.00398107170553497,1,0.36216715799992016
89,661,FarLowNarrow,0.1,0.15,0.2,0.0031622776601683772,0,0.4929063039999164
89,662,ThreeLinesControl,0.0,0.0,0.1,0.025118864315095798,0,99
89,663,ThreeLinesControl,0.0,0.0,0.1,0.03162277660168379,1,0.24926314100002855
89,664,FarHighWide,0.5,0.25,0.03,6.309573444801921e-05,1,0.3244876289995773
89,665,Constant,0.1,0.1,0.1,0.0031622776601683772,0,0.5862326920000669
89,666,ThreeLinesControl,0.0,0.0,0.1,0.025118864315095798,1,0.3658955689998038
89,667,FarLowWide,0.03,0.25,0.5,0.031622776601683784,1,0.32388754700014033
89,668,FarLowWide,0.03,0.25,0.5,0.02511886431509579,1,0.34605241200006276
89,669,Constant,0.1,0.1,0.1,0.00398107170553497,0,0.7441419030001271
89,670,ThreeLinesControl,0.0,0.0,0.1,0.019952623149688792,1,0.31720700300002136
89,671,FarLowWide,0.03,0.25,0.5,0.01995262314968879,1,0.3316333730003862
89,672,FarHighWide,0.5,0.25,0.03,5.0118723362727136e-05,1,0.273541817000023
89,673,ThreeLinesControl,0.0,0.0,0.1,0.01584893192461113,1,0.35171647500010295
89,674,FarHighNarrow,0.2,0.15,0.1,0.00398107170553497,1,0.2705285269998967
89,675,Constant,0.1,0.1,0.1,0.00501187233627272,0,0.42895841800009293
89,676,FarLowNarrow,0.1,0.15,0.2,0.00398107170553497,0,0.3316471019998062
89,677,ThreeLinesControl_null,0.0,0.0,0.1,0.012589254117941666,1,0.24636832800024422
89,678,Constant,0.1,0.1,0.1,0.006309573444801929,0,0.16436735000024782
89,679,FarHighWide,0.5,0.25,0.03,3.981071705534965e-05,0,0.23466317900010836
89,680,FarHighWide,0.5,0.25,0.03,5.0118723362727136e-05,0,0.17373121999980867
89,681,FarHighNarrow,0.2,0.15,0.1,0.0031622776601683772,0,0.3720028719999391
89,682,FarHighNarrow,0.2,0.15,0.1,0.00398107170553497,0,0.24981176200026312
89,683,ThreeLinesControl,0.0,0.0,0.1,0.012589254117941668,0,0.03721290599969507
89,684,FarHighNarrow,0.2,0.15,0.1,0.00501187233627272,0,0.29132890199980466
89,685,FarHighWide,0.5,0.25,0.03,6.309573444801921e-05,0,0.2564223839999613
89,686,FarHighWide,0.5,0.25,0.03,7.943282347242802e-05,0,0.326588559999891
89,687,Constant,0.1,0.1,0.1,0.007943282347242812,0,0.2603897200001484
89,688,FarHighNarrow,0.2,0.15,0.1,0.006309573444801929,0,0.39511140800004796
89,689,FarHighNarrow_null,0.2,0.15,0.1,0.07943282347242814,1,0.3609387239998796
89,690,FarHighWide,0.5,0.25,0.03,9.999999999999984e-05,0,0.43944897900018987
89,691,Constant,0.1,0.1,0.1,0.009999999999999997,0,0.3016713100000743
89,692,Constant_null,0.1,0.1,0.1,0.012589254117941666,1,0.36360669299983783
89,693,FarHighWide,0.5,0.25,0.03,0.00012589254117941653,0,0.3229429339999115
89,694,FarHighNarrow,0.2,0.15,0.1,0.007943282347242812,0,0.4857539629997518
89,695,ThreeLinesControl,0.0,0.0,0.1,0.01584893192461113,0,0.579565576999812
89,696,ThreeLinesControl,0.0,0.0,0.1,0.019952623149688792,1,0.45514552699978594
89,697,FarHighNarrow,0.2,0.15,0.1,0.009999999999999997,1,0.47729469300020355
89,698,FarLowNarrow_null,0.1,0.15,0.2,0.03981071705534971,0,0.5315808149998702
89,699,FarLowNarrow,0.1,0.15,0.2,0.00501187233627272,0,0.48636038399990866
89,700,FarLowNarrow,0.1,0.15,0.2,0.006309573444801929,0,0.32463572400001794
89,701,FarLowWide,0.03,0.25,0.5,0.015848931924611127,0,0.234796809999807
89,702,ThreeLinesControl,0.0,0.0,0.1,0.01584893192461113,0,0.5371358349998445
89,703,FarLowWide_null,0.03,0.25,0.5,0.01995262314968879,1,0.4310924389997126
89,704,Constant,0.1,0.1,0.1,0.012589254117941668,0,0.2693609490002018
89,705,Constant,0.1,0.1,0.1,0.01584893192461113,0,0.21837725099976524
89,706,FarHighWide,0.5,0.25,0.03,0.00015848931924611112,0,0.26479792800000723
89,707,FarHighWide,0.5,0.25,0.03,0.00019952623149688769,1,0.4389993290001257
89,708,FarLowWide,0.03,0.25,0.5,0.01995262314968879,1,0.4226621950001572
89,709,Constant,0.1,0.1,0.1,0.019952623149688792,1,0.2845845060001011
89,710,FarLowWide,0.03,0.25,0.5,0.015848931924611127,1,0.28034112800014555
89,711,FarHighNarrow,0.2,0.15,0.1,0.007943282347242812,1,0.2784055229999467
89,712,ThreeLinesControl,0.0,0.0,0.1,0.019952623149688792,0,0.28957768600002964
89,713,FarLowWide,0.03,0.25,0.5,0.012589254117941666,0,0.5997909590000745
89,714,FarLowWide,0.03,0.25,0.5,0.015848931924611127,0,0.30085309900005086
89,715,ThreeLinesControl,0.0,0.0,0.1,0.025118864315095798,1,0.2969067479998557
89,716,Constant,0.1,0.1,0.1,0.01584893192461113,1,0.2871650859997317
89,717,FarHighNarrow,0.2,0.15,0.1,0.006309573444801929,1,0.3811642700002267
89,718,FarHighNarrow,0.2,0.15,0.1,0.00501187233627272,1,0.33126101300013033
89,719,FarLowWide,0.03,0.25,0.5,0.01995262314968879,1,0.4007409330001792
89,720,FarLowNarrow,0.1,0.15,0.2,0.007943282347242812,0,0.5676630089997161
89,721,FarHighWide_null,0.5,0.25,0.03,0.1,1,0.32579614999986006
89,722,FarLowWide,0.03,0.25,0.5,0.015848931924611127,0,0.2598505070000101
89,723,Constant,0.1,0.1,0.1,0.012589254117941668,0,0.2901641749999726
89,724,FarLowNarrow,0.1,0.15,0.2,0.009999999999999997,0,0.32712939500015636
89,725,FarLowWide,0.03,0.25,0.5,0.01995262314968879,0,0.25316078800005926
89,726,FarLowWide,0.03,0.25,0.5,0.025118864315095794,0,0.258820938000099
89,727,FarLowWide,0.03,0.25,0.5,0.031622776601683784,1,0.2660034089999499
89,728,FarLowNarrow,0.1,0.15,0.2,0.012589254117941668,1,0.33593044000008376
89,729,FarLowNarrow,0.1,0.15,0.2,0.009999999999999997,0,0.43549031800012017
89,730,FarLowWide,0.03,0.25,0.5,0.02511886431509579,1,0.3209081779996268
89,731,FarHighWide,0.5,0.25,0.03,0.00015848931924611112,0,0.335180611999931
89,732,Constant,0.1,0.1,0.1,0.01584893192461113,1,0.19414924500006236
89,733,FarLowWide,0.03,0.25,0.5,0.01995262314968879,0,0.4161174020000544
89,734,FarLowWide,0.03,0.25,0.5,0.025118864315095794,1,0.3747064760000285
89,735,FarHighWide,0.5,0.25,0.03,0.00019952623149688769,1,0.33847509099996387
89,736,FarHighWide,0.5,0.25,0.03,0.00015848931924611112,0,0.616975795000144
89,737,FarLowWide,0.03,0.25,0.5,0.01995262314968879,1,0.5750902919999135
89,738,ThreeLinesControl,0.0,0.0,0.1,0.019952623149688792,1,0.46131759500030967
89,739,ThreeLinesControl,0.0,0.0,0.1,0.01584893192461113,1,0.3302897409998877
89,740,FarHighNarrow,0.2,0.15,0.1,0.00398107170553497,1,0.3216076180001437
89,741,ThreeLinesControl,0.0,0.0,0.1,0.012589254117941668,0,0.4156210699998155
89,742,FarHighWide,0.5,0.25,0.03,0.00019952623149688769,0,0.30994492399986484
89,743,FarLowWide,0.03,0.25,0.5,0.015848931924611127,1,0.41889654699980383
89,744,ThreeLinesControl,0.0,0.0,0.1,0.01584893192461113,1,0.4171029610001824
89,745,FarHighWide,0.5,0.25,0.03,0.0002511886431509577,0,0.4249783629998092
89,746,Constant,0.1,0.1,0.1,0.012589254117941668,0,0.25143338900033996
89,747,FarLowNarrow,0.1,0.15,0.2,0.012589254117941668,0,0.3136306190003779
89,748,FarHighWide,0.5,0.25,0.03,0.00031622776601683756,1,0.3960232160002306
89,749,FarHighNarrow,0.2,0.15,0.1,0.0031622776601683772,1,0.24288085099988166
89,750,FarHighWide,0.5,0.25,0.03,0.0002511886431509577,0,99
89,751,FarHighWide,0.5,0.25,0.03,0.00031622776601683756,0,0.31744364600035624
89,752,FarHighWide_null,0.5,0.25,0.03,0.07943282347242815,1,0.35500381199972253
89,753,FarLowWide,0.03,0.25,0.5,0.012589254117941666,1,0.3123770010001863
89,754,FarLowWide,0.03,0.25,0.5,0.009999999999999995,1,0.42232904699994833
89,755,FarHighNarrow_null,0.2,0.15,0.1,0.06309573444801932,0,0.25276758299969515
89,756,ThreeLinesControl,0.0,0.0,0.1,0.012589254117941668,0,0.2844888780000474
89,757,FarLowNarrow,0.1,0.15,0.2,0.01584893192461113,0,99
89,758,Constant,0.1,0.1,0.1,0.01584893192461113,1,0.28742157600026985
89,759,FarLowNarrow,0.1,0.15,0.2,0.019952623149688792,1,0.28390468999987206
89,760,ThreeLinesControl,0.0,0.0,0.1,0.01584893192461113,1,0.2840095530000326
89,761,ThreeLinesControl,0.0,0.0,0.1,0.012589254117941668,1,0.20959659099980854
89,762,Constant,0.1,0.1,0.1,0.012589254117941668,1,0.31570067199982077
89,763,ThreeLinesControl,0.0,0.0,0.1,0.009999999999999997,1,0.3697772679997797
89,764,ThreeLinesControl_null,0.0,0.0,0.1,0.009999999999999995,0,0.22122403399998802
89,765,FarLowNarrow,0.1,0.15,0.2,0.01584893192461113,0,0.29161418700005015
89,766,Constant,0.1,0.1,0.1,0.009999999999999997,0,0.24944928100012476
89,767,Constant,0.1,0.1,0.1,0.012589254117941668,0,0.3105273659998602
89,768,FarLowNarrow,0.1,0.15,0.2,0.019952623149688792,0,0.3087848820000545
89,769,FarHighWide,0.5,0.25,0.03,0.0003981071705534968,1,0.2017464839996137
89,770,Constant,0.1,0.1,0.1,0.01584893192461113,1,0.13584991700008686
89,771,FarLowNarrow,0.1,0.15,0.2,0.025118864315095798,1,0.22997432600004686
89,772,FarHighNarrow,0.2,0.15,0.1,0.002511886431509578,1,0.19613538800012975
89,773,FarHighWide,0.5,0.25,0.03,0.00031622776601683756,1,0.11627928500001872
89,774,FarLowWide_null,0.03,0.25,0.5,0.015848931924611127,1,0.31421639900008813
89,775,FarLowNarrow,0.1,0.15,0.2,0.019952623149688792,0,0.32667799099999684
89,776,FarLowNarrow,0.1,0.15,0.2,0.025118864315095798,1,0.2529266329997881
89,777,FarHighNarrow,0.2,0.15,0.1,0.001995262314968878,1,0.18688126300003205
89,778,FarHighNarrow,0.2,0.15,0.1,0.0015848931924611121,1,0.1731200730000637
89,779,FarLowWide,0.03,0.25,0.5,0.00794328234724281,0,0.3473866059998727
89,780,FarLowNarrow,0.1,0.15,0.2,0.019952623149688792,1,0.38511224399962884
89,781,FarLowNarrow,0.1,0.15,0.2,0.01584893192461113,1,0.3646652970001014
89,782,FarLowWide,0.03,0.25,0.5,0.009999999999999995,1,0.4507538319999185
89,783,FarHighNarrow,0.2,0.15,0.1,0.001258925411794166,0,0.5199880909999592
89,784,ThreeLinesControl,0.0,0.0,0.1,0.007943282347242812,0,0.4620074139997996
89,785,FarHighWide,0.5,0.25,0.03,0.0002511886431509577,0,0.09114815600014481
89,786,FarLowWide,0.03,0.25,0.5,0.00794328234724281,1,0.23325106599986611
89,787,FarLowWide,0.03,0.25,0.5,0.0063095734448019285,0,0.4715148759996737
89,788,FarLowNarrow,0.1,0.15,0.2,0.012589254117941668,1,0.5496755789999952
89,789,FarHighWide,0.5,0.25,0.03,0.00031622776601683756,1,0.37166029299987713
89,790,ThreeLinesControl_null,0.0,0.0,0.1,0.012589254117941666,1,0.41133654300028866
89,791,FarHighWide,0.5,0.25,0.03,0.0002511886431509577,1,0.3612535980000757
89,792,FarLowNarrow,0.1,0.15,0.2,0.009999999999999997,0,0.2941485230003309
89,793,FarLowNarrow,0.1,0.15,0.2,0.012589254117941668,0,0.23525225400044292
89,794,ThreeLinesControl,0.0,0.0,0.1,0.009999999999999997,0,0.19824700899971504
89,795,Constant_null,0.1,0.1,0.1,0.009999999999999995,1,0.31595033799931116
89,796,FarHighWide_null,0.5,0.25,0.03,0.06309573444801932,1,0.31490312599999015
89,797,FarHighNarrow,0.2,0.15,0.1,0.001584893192461112,0,0.26998107500003243
89,798,Constant,0.1,0.1,0.1,0.012589254117941668,0,0.2758632220002255
89,799,Constant,0.1,0.1,0.1,0.01584893192461113,0,0.38618921600027534
89,800,FarLowWide,0.03,0.25,0.5,0.00794328234724281,0,0.19143587600046885
89,801,FarHighNarrow,0.2,0.15,0.1,0.0019952623149688776,0,0.34050696499980404
89,802,FarHighWide,0.5,0.25,0.03,0.00019952623149688769,0,0.15479913699982717
89,803,ThreeLinesControl,0.0,0.0,0.1,0.012589254117941668,0,0.21688735499992617
89,804,FarLowWide,0.03,0.25,0.5,0.009999999999999995,0,0.24697207600002002
89,805,ThreeLinesControl,0.0,0.0,0.1,0.01584893192461113,0,0.34936983500028873
89,806,FarHighNarrow,0.2,0.15,0.1,0.0025118864315095777,0,0.27568844800043735
89,807,Constant,0.1,0.1,0.1,0.019952623149688792,0,0.30699301099957665
89,808,FarHighWide,0.5,0.25,0.03,0.0002511886431509577,1,0.2156264650002413
89,809,FarLowNarrow_null,0.1,0.15,0.2,0.05011872336272721,1,0.4925601650002136
89,810,Constant,0.1,0.1,0.1,0.025118864315095798,1,0.46395007699993585
89,811,Constant,0.1,0.1,0.1,0.019952623149688792,1,0.3339133829995262
89,812,ThreeLinesControl,0.0,0.0,0.1,0.019952623149688792,1,0.3237736439996297
89,813,Constant,0.1,0.1,0.1,0.01584893192461113,1,0.5352080570000908
89,814,FarHighWide,0.5,0.25,0.03,0.00019952623149688769,1,0.2375320159999319
89,815,FarHighNarrow,0.2,0.15,0.1,0.0031622776601683764,1,0.363698982000642
89,816,Constant,0.1,0.1,0.1,0.012589254117941668,1,0.48068212300040614
89,817,Constant,0.1,0.1,0.1,0.009999999999999997,0,0.2388824929994371
89,818,FarHighWide,0.5,0.25,0.03,0.00015848931924611112,1,0.3172436569993806
89,819,ThreeLinesControl,0.0,0.0,0.1,0.01584893192461113,1,0.2910580919997301
89,820,FarHighWide,0.5,0.25,0.03,0.00012589254117941653,1,0.2645982180001738
89,821,FarLowNarrow,0.1,0.15,0.2,0.01584893192461113,1,0.3601182379998136
89,822,Constant,0.1,0.1,0.1,0.012589254117941668,1,0.2777874190005605
89,823,FarHighNarrow,0.2,0.15,0.1,0.0025118864315095777,0,0.26938452099966526
89,824,FarLowWide,0.03,0.25,0.5,0.012589254117941666,0,0.3286590719999367
89,825,ThreeLinesControl,0.0,0.0,0.1,0.012589254117941668,0,0.2310005019999153
89,826,Constant,0.1,0.1,0.1,0.009999999999999997,0,0.18112020699936693
89,827,ThreeLinesControl,0.0,0.0,0.1,0.01584893192461113,1,0.39213428599941835
89,828,FarHighWide,0.5,0.25,0.03,9.999999999999984e-05,1,0.26248538499930874
89,829,Constant,0.1,0.1,0.1,0.012589254117941668,0,99
89,830,FarLowWide,0.03,0.25,0.5,0.015848931924611127,0,0.3988670010003261
89,831,FarHighNarrow,0.2,0.15,0.1,0.0031622776601683764,0,0.4449979020000683
89,832,FarHighNarrow,0.2,0.15,0.1,0.003981071705534969,0,0.3470216280002205
89,833,FarHighWide,0.5,0.25,0.03,7.943282347242802e-05,0,0.36137027899985696
89,834,FarLowWide,0.03,0.25,0.5,0.01995262314968879,0,99
89,835,FarLowNarrow,0.1,0.15,0.2,0.012589254117941668,1,0.3802006159994562
89,836,Constant,0.1,0.1,0.1,0.01584893192461113,1,0.3540166100001443
89,837,ThreeLinesControl,0.0,0.0,0.1,0.012589254117941668,1,0.5357608049998817
89,838,Constant,0.1,0.1,0.1,0.012589254117941668,0,0.4139305520002381
89,839,FarLowWide,0.03,0.25,0.5,0.025118864315095794,0,0.3325121920006495
89,840,ThreeLinesControl,0.0,0.0,0.1,0.009999999999999997,0,99
89,841,FarLowNarrow,0.1,0.15,0.2,0.009999999999999997,0,0.9116181869994762
89,842,FarHighWide,0.5,0.25,0.03,9.999999999999984e-05,0,0.32567103300061717
89,843,ThreeLinesControl,0.0,0.0,0.1,0.012589254117941668,0,0.39703197200014984
89,844,FarHighWide,0.5,0.25,0.03,0.00012589254117941653,0,0.2648214900000312
89,845,FarHighNarrow,0.2,0.15,0.1,0.0050118723362727186,0,0.3504465480000363
89,846,FarHighNarrow,0.2,0.15,0.1,0.006309573444801928,0,0.2579910140002539
89,847,FarHighNarrow_null,0.2,0.15,0.1,0.07943282347242814,1,0.287264879999384
89,848,Constant,0.1,0.1,0.1,0.01584893192461113,0,0.23728134100019815
89,849,FarLowWide,0.03,0.25,0.5,0.031622776601683784,0,0.34542576800049574
89,850,FarHighNarrow,0.2,0.15,0.1,0.007943282347242809,0,0.47842511199996807
89,851,FarHighNarrow,0.2,0.15,0.1,0.009999999999999993,0,0.5723735419996956
89,852,ThreeLinesControl,0.0,0.0,0.1,0.01584893192461113,1,0.3470549489993573
89,853,FarLowNarrow,0.1,0.15,0.2,0.012589254117941668,1,0.39334242600034486
89,854,FarHighWide,0.5,0.25,0.03,0.00015848931924611112,1,0.31091860299966356
89,855,Constant,0.1,0.1,0.1,0.019952623149688792,1,0.24504842399983318
89,856,FarHighWide,0.5,0.25,0.03,0.00012589254117941653,1,0.44349161599984654
89,857,FarLowWide,0.03,0.25,0.5,0.03981071705534971,1,0.5210590099995898
89,858,FarLowNarrow,0.1,0.15,0.2,0.009999999999999997,0,0.24044698299985612
89,859,FarLowNarrow,0.1,0.15,0.2,0.012589254117941668,0,0.33444563200009725
89,860,ThreeLinesControl,0.0,0.0,0.1,0.012589254117941668,0,0.14618534200053546
89,861,Constant,0.1,0.1,0.1,0.01584893192461113,1,0.24835609499950806
89,862,FarHighNarrow,0.2,0.15,0.1,0.012589254117941664,1,0.2463735210003506
89,863,FarLowNarrow,0.1,0.15,0.2,0.01584893192461113,1,0.29763006099983613
89,864,ThreeLinesControl,0.0,0.0,0.1,0.01584893192461113,1,0.2477839719995245
89,865,FarHighNarrow,0.2,0.15,0.1,0.009999999999999993,1,0.36282574699998804
89,866,FarHighWide,0.5,0.25,0.03,9.999999999999984e-05,1,0.41718478500024503
89,867,Constant,0.1,0.1,0.1,0.012589254117941668,1,0.4553544479995253
89,868,FarHighWide,0.5,0.25,0.03,7.943282347242802e-05,0,0.029337269000279775
89,869,ThreeLinesControl,0.0,0.0,0.1,0.012589254117941668,1,0.08294267000019317
89,870,FarHighWide,0.5,0.25,0.03,9.999999999999984e-05,1,0.33661341900005937
89,871,ThreeLinesControl,0.0,0.0,0.1,0.009999999999999997,1,0.32653824199951487
89,872,Constant,0.1,0.1,0.1,0.009999999999999997,0,0.3887277620005989
89,873,Constant_null,0.1,0.1,0.1,0.00794328234724281,1,0.21026400099981402
89,874,FarHighNarrow,0.2,0.15,0.1,0.007943282347242809,0,0.273794333999831
89,875,Constant,0.1,0.1,0.1,0.012589254117941668,0,0.39245359699998517
89,876,FarHighWide,0.5,0.25,0.03,7.943282347242802e-05,0,0.47558522399958747
89,877,FarHighWide,0.5,0.25,0.03,9.999999999999984e-05,0,0.35360574900005304
89,878,FarHighWide,0.5,0.25,0.03,0.00012589254117941653,0,99
89,879,FarLowNarrow,0.1,0.15,0.2,0.012589254117941668,0,0.21101985799941758
89,880,Constant,0.1,0.1,0.1,0.01584893192461113,0,0.2961519059999773
89,881,FarHighNarrow,0.2,0.15,0.1,0.009999999999999993,0,0.35016135499972734
89,882,FarLowWide_null,0.03,0.25,0.5,0.012589254117941666,1,0.35459953700046754
89,883,FarLowNarrow_null,0.1,0.15,0.2,0.03981071705534971,1,0.2964675620005437
89,884,FarHighNarrow,0.2,0.15,0.1,0.012589254117941664,0,0.3026671269999497
89,885,FarLowNarrow,0.1,0.15,0.2,0.01584893192461113,0,0.10068340299949341
89,886,FarHighNarrow,0.2,0.15,0.1,0.015848931924611127,0,99
89,887,ThreeLinesControl,0.0,0.0,0.1,0.007943282347242812,0,0.17633265600034065
89,888,FarHighNarrow,0.2,0.15,0.1,0.01995262314968879,0,0.23796326899991982
89,889,FarHighNarrow,0.2,0.15,0.1,0.025118864315095794,1,0.45251785300024494
89,890,FarHighWide,0.5,0.25,0.03,0.00015848931924611112,1,0.2739843529998325
89,891,ThreeLinesControl,0.0,0.0,0.1,0.009999999999999997,1,0.3839326629995412
89,892,Constant,0.1,0.1,0.1,0.019952623149688792,0,0.2680061459996068
89,893,FarLowWide,0.03,0.25,0.5,0.031622776601683784,1,0.1782855870005733
89,894,FarHighWide,0.5,0.25,0.03,0.00012589254117941653,1,0.19111681300000782
89,895,FarLowWide,0.03,0.25,0.5,0.02511886431509579,0,99
89,896,Constant,0.1,0.1,0.1,0.025118864315095798,1,0.2968245969996133
89,897,FarLowWide,0.03,0.25,0.5,0.031622776601683784,1,0.27073206800014304
89,898,FarLowWide,0.03,0.25,0.5,0.02511886431509579,1,0.202769647000423
89,899,Constant,0.1,0.1,0.1,0.019952623149688792,1,0.2558307440003773
89,900,FarLowWide_null,0.03,0.25,0.5,0.009999999999999995,0,0.5425842640006522
89,901,FarLowNarrow,0.1,0.15,0.2,0.019952623149688792,0,0.5083494740001697
89,902,FarHighWide,0.5,0.25,0.03,9.999999999999984e-05,0,0.546154325000316
89,903,FarHighWide,0.5,0.25,0.03,0.00012589254117941653,0,99
89,904,FarLowWide,0.03,0.25,0.5,0.01995262314968879,0,0.21474071600005118
89,905,FarLowWide,0.03,0.25,0.5,0.025118864315095794,1,0.3000686499999574
89,906,FarHighWide,0.5,0.25,0.03,0.00015848931924611112,1,0.24992573400049878
89,907,Constant,0.1,0.1,0.1,0.01584893192461113,1,0.360586443000102
89,908,ThreeLinesControl,0.0,0.0,0.1,0.007943282347242812,1,0.1604957480003577
89,909,Constant,0.1,0.1,0.1,0.012589254117941668,0,0.3945403879997684
89,910,FarHighWide,0.5,0.25,0.03,0.00012589254117941653,1,0.18439012700036983
89,911,FarLowWide,0.03,0.25,0.5,0.01995262314968879,1,0.2998572989999957
89,912,FarLowNarrow,0.1,0.15,0.2,0.025118864315095798,1,0.27360842899997806
89,913,FarHighWide,0.5,0.25,0.03,9.999999999999984e-05,1,0.19196444699991844
89,914,FarHighNarrow,0.2,0.15,0.1,0.01995262314968879,1,0.02806070000042382
89,915,FarHighNarrow,0.2,0.15,0.1,0.015848931924611127,1,0.6901508199998716
89,916,FarHighNarrow,0.2,0.15,0.1,0.012589254117941666,0,99
89,917,FarHighNarrow,0.2,0.15,0.1,0.015848931924611127,1,0.3666038530000151
89,918,FarLowNarrow,0.1,0.15,0.2,0.019952623149688792,1,0.21179088300050353
89,919,FarLowWide,0.03,0.25,0.5,0.015848931924611127,1,0.22677921000013157
89,920,FarHighNarrow,0.2,0.15,0.1,0.012589254117941666,1,0.30534890799935965
89,921,FarLowWide,0.03,0.25,0.5,0.012589254117941666,1,0.2870479789999081
89,922,FarLowNarrow,0.1,0.15,0.2,0.01584893192461113,0,0.6842145460004758
89,923,FarLowWide,0.03,0.25,0.5,0.009999999999999995,1,0.21841455999947357
89,924,ThreeLinesControl,0.0,0.0,0.1,0.006309573444801929,1,0.2662740819996543
89,925,FarLowWide,0.03,0.25,0.5,0.00794328234724281,0,0.35603590000027907
89,926,ThreeLinesControl,0.0,0.0,0.1,0.00501187233627272,0,0.29110754800058203
89,927,FarHighNarrow,0.2,0.15,0.1,0.009999999999999995,0,0.28893073899962474
89,928,FarHighWide,0.5,0.25,0.03,7.943282347242802e-05,0,0.30805484499978775
89,929,FarLowNarrow,0.1,0.15,0.2,0.019952623149688792,1,0.15328447600040818
89,930,ThreeLinesControl,0.0,0.0,0.1,0.006309573444801929,1,0.23823279999942315
89,931,FarHighWide_null,0.5,0.25,0.03,0.05011872336272722,0,0.5240339479996692
89,932,FarLowWide,0.03,0.25,0.5,0.009999999999999995,1,0.27486328599934495
89,933,Constant,0.1,0.1,0.1,0.01584893192461113,1,0.19290052199994534
89,934,FarHighWide,0.5,0.25,0.03,9.999999999999984e-05,1,0.3578277260003233
89,935,FarHighNarrow,0.2,0.15,0.1,0.012589254117941666,1,0.2361461660002533
89,936,Constant,0.1,0.1,0.1,0.012589254117941668,0,0.42792461599947273
89,937,FarLowNarrow,0.1,0.15,0.2,0.01584893192461113,1,0.3854065690002244
89,938,FarLowNarrow,0.1,0.15,0.2,0.012589254117941668,1,0.6862176559998261
89,939,Constant,0.1,0.1,0.1,0.01584893192461113,0,0.3800784619998012
89,940,FarHighWide,0.5,0.25,0.03,7.943282347242802e-05,0,0.22697597600017616
89,941,FarLowWide,0.03,0.25,0.5,0.00794328234724281,1,0.30212827200011816
89,942,FarHighNarrow,0.2,0.15,0.1,0.009999999999999995,1,0.18819441499999812
89,943,Constant,0.1,0.1,0.1,0.019952623149688792,1,0.32123831100034295
89,944,FarHighWide,0.5,0.25,0.03,9.999999999999984e-05,1,0.3401597930005664
89,945,FarHighWide,0.5,0.25,0.03,7.943282347242802e-05,0,0.4268343419998928
89,946,ThreeLinesControl,0.0,0.0,0.1,0.00501187233627272,0,0.24873949799984985
89,947,ThreeLinesControl,0.0,0.0,0.1,0.006309573444801929,1,0.36610955099968123
89,948,Constant,0.1,0.1,0.1,0.01584893192461113,1,0.3717855269997017
89,949,FarHighNarrow,0.2,0.15,0.1,0.00794328234724281,1,0.3530735229996935
89,950,ThreeLinesControl,0.0,0.0,0.1,0.00501187233627272,0,0.3434827370001585
89,951,FarHighNarrow,0.2,0.15,0.1,0.0063095734448019285,0,0.3335483179998846
89,952,FarHighNarrow,0.2,0.15,0.1,0.00794328234724281,0,0.36258700899998075
89,953,FarLowNarrow_null,0.1,0.15,0.2,0.031622776601683784,1,0.09727324200048315
89,954,FarLowWide,0.03,0.25,0.5,0.0063095734448019285,0,99
89,955,FarLowWide,0.03,0.25,0.5,0.00794328234724281,0,0.1561942309999722
89,956,FarLowNarrow,0.1,0.15,0.2,0.009999999999999997,0,0.21840693400008604
89,957,ThreeLinesControl,0.0,0.0,0.1,0.006309573444801929,1,0.2626196720002554
89,958,FarLowWide,0.03,0.25,0.5,0.009999999999999995,0,0.39646819999961735
89,959,FarLowNarrow,0.1,0.15,0.2,0.012589254117941668,0,0.2896997019997798
89,960,ThreeLinesControl,0.0,0.0,0.1,0.00501187233627272,0,0.5872340800005986
89,961,ThreeLinesControl,0.0,0.0,0.1,0.006309573444801929,0,0.298872737000238
89,962,FarLowNarrow,0.1,0.15,0.2,0.01584893192461113,0,0.2806480159997591
89,963,FarLowNarrow,0.1,0.15,0.2,0.019952623149688792,0,0.3815224259997194
89,964,FarLowWide,0.03,0.25,0.5,0.012589254117941666,0,0.3317723330001172
89,965,FarHighWide,0.5,0.25,0.03,9.999999999999984e-05,0,0.2069237109999449
89,966,FarHighNarrow,0.2,0.15,0.1,0.009999999999999995,0,0.3399437329999273
89,967,ThreeLinesControl_null,0.0,0.0,0.1,0.009999999999999995,1,0.2821914169999218
89,968,FarHighWide,0.5,0.25,0.03,0.00012589254117941653,0,0.18125652399976389
89,969,FarHighWide,0.5,0.25,0.03,0.00015848931924611112,0,0.01171210800021072
89,970,FarLowWide,0.03,0.25,0.5,0.015848931924611127,1,0.33773527199991804
89,971,FarHighWide,0.5,0.25,0.03,0.00019952623149688769,1,0.2628984200000559
89,972,Constant,0.1,0.1,0.1,0.012589254117941668,1,0.44536981900000683
89,973,FarHighNarrow,0.2,0.15,0.1,0.012589254117941666,1,0.30713163599921245
89,974,ThreeLinesControl,0.0,0.0,0.1,0.007943282347242812,0,0.26543838500037964
89,975,FarLowWide,0.03,0.25,0.5,0.012589254117941666,1,0.23833570599981613
89,976,FarHighWide,0.5,0.25,0.03,0.00015848931924611112,1,0.20564627700059646
89,977,FarHighNarrow,0.2,0.15,0.1,0.009999999999999995,1,0.1638924839999163
89,978,Constant,0.1,0.1,0.1,0.009999999999999997,1,0.41126708699994197
89,979,FarLowNarrow,0.1,0.15,0.2,0.025118864315095798,0,0.2949364739997691
89,980,Constant,0.1,0.1,0.1,0.007943282347242812,1,0.1330964850003511
89,981,FarLowWide,0.03,0.25,0.5,0.009999999999999995,0,99
89,982,FarHighNarrow,0.2,0.15,0.1,0.00794328234724281,1,0.27056510300008085
89,983,FarLowNarrow,0.1,0.15,0.2,0.03162277660168379,1,0.19655977500042354
89,984,FarLowNarrow,0.1,0.15,0.2,0.025118864315095798,1,0.247702173000107
89,985,FarLowWide,0.03,0.25,0.5,0.012589254117941666,1,0.26184122199993
89,986,ThreeLinesControl,0.0,0.0,0.1,0.009999999999999997,1,0.3070482199991602
89,987,FarLowWide,0.03,0.25,0.5,0.009999999999999995,0,0.3130818529998578
89,988,FarLowWide,0.03,0.25,0.5,0.012589254117941666,0,0.2952622339998925
89,989,FarHighWide,0.5,0.25,0.03,0.00012589254117941653,0,0.3002419229997031
89,990,Constant,0.1,0.1,0.1,0.006309573444801929,0,99
89,991,FarHighNarrow,0.2,0.15,0.1,0.0063095734448019285,1,0.39273484200020903
89,992,ThreeLinesControl,0.0,0.0,0.1,0.007943282347242812,1,0.16824219600039214
89,993,FarLowNarrow,0.1,0.15,0.2,0.019952623149688792,0,0.0461942750007438
89,994,FarLowWide_null,0.03,0.25,0.5,0.012589254117941666,0,99
89,995,FarHighNarrow,0.2,0.15,0.1,0.005011872336272719,0,99
89,996,FarHighWide_null,0.5,0.25,0.03,0.06309573444801932,0,0.05390421799984324
89,997,FarLowWide,0.03,0.25,0.5,0.015848931924611127,1,0.1086695680005505
89,998,FarHighNarrow,0.2,0.15,0.1,0.0063095734448019285,1,0.2158076659998187
89,999,FarHighWide_null,0.5,0.25,0.03,0.07943282347242814,0,0.28600947500035545
89,1000,FarHighWide,0.5,0.25,0.03,0.00015848931924611112,1,0.2192333930006498
89,1001,FarHighWide,0.5,0.25,0.03,0.00012589254117941653,1,0.3020901600002617
89,1002,FarLowNarrow,0.1,0.15,0.2,0.025118864315095798,1,0.06782925500010606
89,1003,FarLowNarrow,0.1,0.15,0.2,0.019952623149688792,1,0.12253808800051047
89,1004,Constant,0.1,0.1,0.1,0.007943282347242812,0,0.23273496799993154
89,1005,Constant,0.1,0.1,0.1,0.009999999999999997,1,0.2786944700001186
89,1006,FarLowWide,0.03,0.25,0.5,0.012589254117941666,0,0.28371803800018824
89,1007,FarHighNarrow,0.2,0.15,0.1,0.005011872336272719,1,0.217762013000538
89,1008,FarLowNarrow,0.1,0.15,0.2,0.01584893192461113,1,0.1762869510002929
89,1009,FarHighWide,0.5,0.25,0.03,9.999999999999984e-05,1,0.19856233799964684
89,1010,FarHighNarrow,0.2,0.15,0.1,0.00398107170553497,1,0.34802469100031885
89,1011,FarLowNarrow,0.1,0.15,0.2,0.012589254117941668,0,99
89,1012,FarHighNarrow,0.2,0.15,0.1,0.0031622776601683772,0,0.14139864499975374
89,1013,FarLowNarrow,0.1,0.15,0.2,0.01584893192461113,0,0.29901118199995835
89,1014,Constant,0.1,0.1,0.1,0.007943282347242812,1,0.16573427799994533
89,1015,FarHighNarrow,0.2,0.15,0.1,0.00398107170553497,1,0.1804751589997977
89,1016,FarHighWide,0.5,0.25,0.03,7.943282347242802e-05,1,0.2019982190004157
89,1017,FarLowWide,0.03,0.25,0.5,0.015848931924611127,1,0.2854039769999872
89,1018,FarLowNarrow,0.1,0.15,0.2,0.019952623149688792,1,0.29175779100023647
89,1019,FarLowNarrow,0.1,0.15,0.2,0.01584893192461113,1,0.23407326899996406
89,1020,ThreeLinesControl,0.0,0.0,0.1,0.006309573444801929,1,0.21502174800025387
89,1021,Constant,0.1,0.1,0.1,0.006309573444801929,0,99
89,1022,Constant_null,0.1,0.1,0.1,0.0063095734448019285,1,0.24335869700007606
89,1023,ThreeLinesControl_null,0.0,0.0,0.1,0.00794328234724281,1,0.24943931400048314
89,1024,FarHighWide,0.5,0.25,0.03,6.309573444801921e-05,0,0.19153724099942337
89,1025,ThreeLinesControl,0.0,0.0,0.1,0.00501187233627272,1,0.254127778000111
89,1026,FarLowNarrow,0.1,0.15,0.2,0.012589254117941668,1,0.34093207200021425
89,1027,ThreeLinesControl,0.0,0.0,0.1,0.00398107170553497,1,0.23447197200039227
89,1028,ThreeLinesControl_null,0.0,0.0,0.1,0.0063095734448019285,0,0.3263669200005097
89,1029,Constant_null,0.1,0.1,0.1,0.005011872336272719,0,0.4202021249993777
89,1030,FarLowWide_null,0.03,0.25,0.5,0.015848931924611127,0,0.37528680899959
89,1031,Constant,0.1,0.1,0.1,0.007943282347242812,0,0.42961875399942073
89,1032,Constant,0.1,0.1,0.1,0.009999999999999997,0,0.4118541540001388
89,1033,FarLowNarrow,0.1,0.15,0.2,0.009999999999999997,0,0.2310028889996829
89,1034,FarHighNarrow,0.2,0.15,0.1,0.0031622776601683772,0,0.11687234399960289
89,1035,FarLowWide,0.03,0.25,0.5,0.012589254117941666,1,0.7303226020003422
89,1036,FarLowWide,0.03,0.25,0.5,0.009999999999999995,1,0.2802232180001738
89,1037,FarLowWide_null,0.03,0.25,0.5,0.01995262314968879,1,0.5024910550000641
89,1038,FarLowWide,0.03,0.25,0.5,0.00794328234724281,0,0.26073815299969283
89,1039,Constant,0.1,0.1,0.1,0.012589254117941668,0,0.45081708999987313
89,1040,FarLowWide,0.03,0.25,0.5,0.009999999999999995,0,0.21606428999984928
89,1041,FarLowWide,0.03,0.25,0.5,0.012589254117941666,0,0.20642622800005483
89,1042,FarHighNarrow,0.2,0.15,0.1,0.00398107170553497,0,0.4184023450006862
89,1043,FarLowWide,0.03,0.25,0.5,0.015848931924611127,0,0.4885695869998017
89,1044,Constant,0.1,0.1,0.1,0.01584893192461113,0,0.4686164090007878
89,1045,ThreeLinesControl,0.0,0.0,0.1,0.0031622776601683772,0,0.4426443530001052
89,1046,FarLowNarrow,0.1,0.15,0.2,0.012589254117941668,0,0.22194416400088812
89,1047,Constant,0.1,0.1,0.1,0.019952623149688792,0,0.3549520289998327
89,1048,FarLowWide,0.03,0.25,0.5,0.01995262314968879,1,0.2093268819999139
89,1049,ThreeLinesControl,0.0,0.0,0.1,0.00398107170553497,1,0.2373184959997161
89,1050,FarLowNarrow,0.1,0.15,0.2,0.01584893192461113,1,0.33833347000017966
89,1051,FarLowNarrow,0.1,0.15,0.2,0.012589254117941668,1,0.36027126900080475
89,1052,Constant,0.1,0.1,0.1,0.025118864315095798,1,0.20676979499967274
89,1053,FarHighWide_null,0.5,0.25,0.03,0.09999999999999999,0,0.14082635799968557
89,1054,Constant,0.1,0.1,0.1,0.019952623149688792,0,0.23473906900017028
89,1055,ThreeLinesControl,0.0,0.0,0.1,0.0031622776601683772,0,0.2570755380002083
89,1056,Constant,0.1,0.1,0.1,0.025118864315095798,1,0.32724841900017054
89,1057,FarLowWide,0.03,0.25,0.5,0.015848931924611127,1,0.37391870099963853
89,1058,ThreeLinesControl,0.0,0.0,0.1,0.00398107170553497,1,0.18028843800038885
89,1059,FarHighNarrow,0.2,0.15,0.1,0.00501187233627272,0,0.19523423999999068
89,1060,FarLowWide_null,0.03,0.25,0.5,0.015848931924611127,0,0.27037907900012215
89,1061,ThreeLinesControl,0.0,0.0,0.1,0.0031622776601683772,1,0.18018369899982645
89,1062,ThreeLinesControl,0.0,0.0,0.1,0.002511886431509578,1,0.2982906520001052
89,1063,Constant,0.1,0.1,0.1,0.019952623149688792,0,0.2853863079999428
89,1064,FarLowNarrow,0.1,0.15,0.2,0.009999999999999997,0,0.41166560200053937
89,1065,FarHighNarrow,0.2,0.15,0.1,0.006309573444801929,0,99
89,1066,FarLowWide,0.03,0.25,0.5,0.012589254117941666,1,0.33310665899989544
89,1067,FarLowNarrow,0.1,0.15,0.2,0.012589254117941668,1,0.2829456859999482
89,1068,FarLowNarrow,0.1,0.15,0.2,0.009999999999999997,1,0.30394010199961485
89,1069,FarHighWide_null,0.5,0.25,0.03,0.1,1,0.2782511739997062
89,1070,ThreeLinesControl,0.0,0.0,0.1,0.001995262314968878,0,99
89,1071,ThreeLinesControl,0.0,0.0,0.1,0.002511886431509578,0,0.27474946700021974
89,1072,FarLowNarrow,0.1,0.15,0.2,0.007943282347242812,0,0.2888718959993639
89,1073,ThreeLinesControl,0.0,0.0,0.1,0.0031622776601683772,0,0.20694292400003178
89,1074,FarHighWide,0.5,0.25,0.03,7.943282347242802e-05,0,0.1661469959999522
89,1075,FarHighNarrow,0.2,0.15,0.1,0.007943282347242812,0,0.13277090300016425
89,1076,FarLowNarrow,0.1,0.15,0.2,0.009999999999999997,0,0.247258924999187
89,1077,FarLowWide,0.03,0.25,0.5,0.009999999999999995,0,0.36554898299982597
89,1078,Constant,0.1,0.1,0.1,0.025118864315095798,0,0.27446415899976273
89,1079,FarHighWide,0.5,0.25,0.03,9.999999999999984e-05,1,0.3016685149996192
89,1080,FarHighWide,0.5,0.25,0.03,7.943282347242802e-05,0,0.6375589899998886
89,1081,FarLowWide,0.03,0.25,0.5,0.012589254117941666,0,0.2836904229998254
89,1082,FarHighNarrow,0.2,0.15,0.1,0.009999999999999997,0,0.33008492200042383
89,1083,FarHighWide,0.5,0.25,0.03,9.999999999999984e-05,0,0.30879315200036217
89,1084,FarHighWide,0.5,0.25,0.03,0.00012589254117941653,1,0.2676590410001154
89,1085,FarHighWide,0.5,0.25,0.03,9.999999999999984e-05,1,0.20957018100034475
89,1086,FarHighWide,0.5,0.25,0.03,7.943282347242802e-05,0,0.31725063099929685
89,1087,Constant,0.1,0.1,0.1,0.03162277660168379,1,0.2997708370003238
89,1088,FarLowNarrow,0.1,0.15,0.2,0.012589254117941668,1,0.3936183590003566
89,1089,FarLowNarrow,0.1,0.15,0.2,0.009999999999999997,1,0.22424957899966103
89,1090,FarHighNarrow,0.2,0.15,0.1,0.012589254117941668,1,0.33407709400034946
89,1091,Constant,0.1,0.1,0.1,0.025118864315095798,0,0.2670975439996255
89,1092,FarLowWide,0.03,0.25,0.5,0.015848931924611127,1,0.20155548100046872
89,1093,FarLowNarrow,0.1,0.15,0.2,0.007943282347242812,1,0.34365883499958727
89,1094,ThreeLinesControl,0.0,0.0,0.1,0.00398107170553497,1,0.30067245099962747
89,1095,Constant,0.1,0.1,0.1,0.03162277660168379,0,0.13895017199956783
89,1096,ThreeLinesControl,0.0,0.0,0.1,0.0031622776601683772,1,0.18516149800052517
89,1097,FarHighWide,0.5,0.25,0.03,9.999999999999984e-05,1,0.31636230000003707
89,1098,Constant,0.1,0.1,0.1,0.03981071705534973,1,0.26568545200007065
89,1099,Constant,0.1,0.1,0.1,0.03162277660168379,1,0.2854000549996272
89,1100,FarLowWide,0.03,0.25,0.5,0.012589254117941666,1,0.5551545999996961
89,1101,FarLowNarrow,0.1,0.15,0.2,0.006309573444801929,0,99
89,1102,FarHighNarrow,0.2,0.15,0.1,0.009999999999999997,0,0.3179083869999886
89,1103,FarHighNarrow,0.2,0.15,0.1,0.012589254117941668,0,0.25198498500049027
89,1104,Constant,0.1,0.1,0.1,0.025118864315095798,1,0.3932837889997245
89,1105,Constant,0.1,0.1,0.1,0.019952623149688792,1,0.2873077120002563
89,1106,FarHighWide,0.5,0.25,0.03,7.943282347242802e-05,1,0.30137094099973183
89,1107,FarLowWide,0.03,0.25,0.5,0.009999999999999995,0,0.4752171879999878
89,1108,FarHighWide_null,0.5,0.25,0.03,0.07943282347242815,1,0.4353971290001937
89,1109,FarLowNarrow,0.1,0.15,0.2,0.007943282347242812,0,0.28064527599963185
89,1110,FarHighWide,0.5,0.25,0.03,6.309573444801921e-05,1,0.21309184199981246
89,1111,ThreeLinesControl,0.0,0.0,0.1,0.002511886431509578,1,0.26095949899990956
89,1112,FarHighNarrow,0.2,0.15,0.1,0.01584893192461113,1,0.2746028629999273
89,1113,Constant,0.1,0.1,0.1,0.01584893192461113,0,99
89,1114,FarHighWide,0.5,0.25,0.03,5.0118723362727136e-05,1,0.22731894600019587
89,1115,FarHighWide_null,0.5,0.25,0.03,0.06309573444801932,0,0.2972825799997736
89,1116,Constant,0.1,0.1,0.1,0.019952623149688792,0,0.5240746740000759
89,1117,ThreeLinesControl,0.0,0.0,0.1,0.001995262314968878,0,0.4261909110000488
89,1118,FarLowNarrow,0.1,0.15,0.2,0.009999999999999997,0,0.24699727200004418
89,1119,ThreeLinesControl_null,0.0,0.0,0.1,0.00794328234724281,1,0.1805562130002727
89,1120,ThreeLinesControl,0.0,0.0,0.1,0.002511886431509578,0,0.11463669299973844
89,1121,ThreeLinesControl,0.0,0.0,0.1,0.0031622776601683772,0,0.12849964900033228
89,1122,FarHighWide,0.5,0.25,0.03,3.981071705534965e-05,0,0.046522854999238916
89,1123,FarHighWide_null,0.5,0.25,0.03,0.07943282347242814,0,0.29324683799950435
89,1124,FarHighWide,0.5,0.25,0.03,5.0118723362727136e-05,1,0.3157950470003925
89,1125,FarLowWide,0.03,0.25,0.5,0.012589254117941666,0,0.26589736599999014
89,1126,FarLowNarrow,0.1,0.15,0.2,0.012589254117941668,0,99
89,1127,FarLowNarrow,0.1,0.15,0.2,0.01584893192461113,0,99
89,1128,FarHighNarrow,0.2,0.15,0.1,0.012589254117941668,0,0.20169190500018885
89,1129,FarLowWide,0.03,0.25,0.5,0.015848931924611127,0,99
89,1130,FarLowNarrow,0.1,0.15,0.2,0.019952623149688792,1,0.28287705599996116
89,1131,FarLowWide_null,0.03,0.25,0.5,0.01995262314968879,1,0.28094667799996387
89,1132,ThreeLinesControl,0.0,0.0,0.1,0.00398107170553497,0,0.20398584000031406
89,1133,FarHighWide_null,0.5,0.25,0.03,0.09999999999999999,1,0.026637175000360003
89,1134,FarHighNarrow,0.2,0.15,0.1,0.01584893192461113,0,0.1836371199997302
89,1135,FarLowNarrow,0.1,0.15,0.2,0.01584893192461113,0,99
89,1136,FarLowWide,0.03,0.25,0.5,0.01995262314968879,1,0.3959212239997214
89,1137,FarHighNarrow,0.2,0.15,0.1,0.019952623149688792,1,0.1691695500003334
89,1138,ThreeLinesControl_null,0.0,0.0,0.1,0.0063095734448019285,0,0.16019345899985638
89,1139,ThreeLinesControl_null,0.0,0.0,0.1,0.00794328234724281,0,0.14949004099980812
89,1140,FarLowNarrow,0.1,0.15,0.2,0.019952623149688792,1,0.13968627199938055
89,1141,FarHighNarrow,0.2,0.15,0.1,0.01584893192461113,0,99
89,1142,FarLowWide,0.03,0.25,0.5,0.015848931924611127,0,99
89,1143,ThreeLinesControl,0.0,0.0,0.1,0.00501187233627272,1,0.06116393400043307
89,1144,FarHighWide,0.5,0.25,0.03,3.981071705534965e-05,1,0.06692810499953339
89,1145,FarLowNarrow,0.1,0.15,0.2,0.01584893192461113,1,0.12503557299987733
89,1146,FarLowNarrow,0.1,0.15,0.2,0.012589254117941668,1,0.019527825000295707
89,1147,FarHighNarrow,0.2,0.15,0.1,0.019952623149688792,1,0.18546624100054032
89,1148,FarHighNarrow,0.2,0.15,0.1,0.01584893192461113,1,0.10085336399970402
89,1149,FarHighWide,0.5,0.25,0.03,3.162277660168373e-05,1,0.0897306139995635
89,1150,FarLowWide,0.03,0.25,0.5,0.01995262314968879,0,99
89,1151,FarLowNarrow,0.1,0.15,0.2,0.009999999999999997,0,99
89,1152,FarLowNarrow,0.1,0.15,0.2,0.012589254117941668,0,0.26741111200044543
89,1153,FarHighWide,0.5,0.25,0.03,2.5118864315095747e-05,1,0.2084350959994481
89,1154,FarHighWide_null,0.5,0.25,0.03,0.07943282347242814,1,0.3188688070003991
89,1155,FarHighNarrow,0.2,0.15,0.1,0.012589254117941668,0,0.20463910600028612
89,1156,FarLowNarrow,0.1,0.15,0.2,0.01584893192461113,0,99
89,1157,FarLowWide,0.03,0.25,0.5,0.025118864315095794,1,0.18669954400047573
89,1158,FarLowNarrow,0.1,0.15,0.2,0.019952623149688792,1,0.16088088599917683
89,1159,FarHighNarrow,0.2,0.15,0.1,0.01584893192461113,1,0.10131137300049886
89,1160,FarLowNarrow,0.1,0.15,0.2,0.01584893192461113,1,0.05944977099989046
89,1161,FarLowNarrow,0.1,0.15,0.2,0.012589254117941668,1,0.16850279399932333
89,1162,FarLowWide,0.03,0.25,0.5,0.01995262314968879,0,0.2367030249997697
89,1163,FarLowWide,0.03,0.25,0.5,0.025118864315095794,0,0.11376902700067149
89,1164,FarLowWide,0.03,0.25,0.5,0.031622776601683784,0,99
89,1165,FarHighNarrow,0.2,0.15,0.1,0.012589254117941668,1,0.2033298320002359
89,1166,FarHighNarrow,0.2,0.15,0.1,0.009999999999999997,1,0.20129625800018403
89,1167,FarHighNarrow,0.2,0.15,0.1,0.007943282347242812,0,0.2230493139995815
89,1168,FarLowWide,0.03,0.25,0.5,0.03981071705534971,0,99
89,1169,FarHighNarrow,0.2,0.15,0.1,0.009999999999999997,1,0.21052757400047994
89,1170,FarHighNarrow,0.2,0.15,0.1,0.007943282347242812,0,99
89,1171,FarHighWide_null,0.5,0.25,0.03,0.06309573444801932,0,0.23912462800035428
89,1172,FarHighWide,0.5,0.25,0.03,1.9952623149688752e-05,1,0.18171897800039005
89,1173,FarHighWide,0.5,0.25,0.03,1.58489319246111e-05,1,0.14774119000048813
89,1174,FarHighWide,0.5,0.25,0.03,1.2589254117941644e-05,1,0.05953775499983749
89,1175,FarLowWide,0.03,0.25,0.5,0.05011872336272721,0,99
89,1176,FarLowWide,0.03,0.25,0.5,0.0630957344480193,0,99
89,1177,FarHighWide,0.5,0.25,0.03,9.999999999999977e-06,1,0.3461067270000058
89,1178,FarHighWide,0.5,0.25,0.03,7.943282347242796e-06,1,0.2619112619995576
89,1179,FarHighWide,0.5,0.25,0.03,6.309573444801917e-06,1,0.09129515699987678
89,1180,FarHighNarrow,0.2,0.15,0.1,0.009999999999999997,0,99
89,1181,FarLowWide,0.03,0.25,0.5,0.07943282347242812,0,0.08412919199963653
89,1182,FarHighNarrow,0.2,0.15,0.1,0.012589254117941668,1,0.11478592999992543
89,1183,FarLowWide,0.03,0.25,0.5,0.09999999999999998,1,0.1528606600004423
89,1184,FarHighWide,0.5,0.25,0.03,5.0118723362727106e-06,1,0.25370384599955287
89,1185,FarLowWide,0.03,0.25,0.5,0.07943282347242812,1,0.13126886800000648
89,1186,FarLowWide,0.03,0.25,0.5,0.0630957344480193,1,0.15329165700040903
89,1187,FarHighWide,0.5,0.25,0.03,3.981071705534962e-06,1,0.13521591700009594
89,1188,FarHighWide,0.5,0.25,0.03,3.162277660168371e-06,1,0.24574459199993726
89,1189,FarLowWide,0.03,0.25,0.5,0.050118723362727206,1,0.26887805800015485
89,1190,FarLowWide,0.03,0.25,0.5,0.039810717055349706,1,0.19535808299951896
89,1191,FarHighWide,0.5,0.25,0.03,2.5118864315095734e-06,0,99
89,1192,FarLowWide,0.03,0.25,0.5,0.03162277660168378,1,0.4924208060001547
89,1193,FarHighWide,0.5,0.25,0.03,3.162277660168371e-06,1,0.2906077699999514
89,1194,FarHighWide,0.5,0.25,0.03,2.5118864315095734e-06,0,0.28559457199935423
89,1195,FarHighWide,0.5,0.25,0.03,3.162277660168371e-06,0,99
89,1196,FarLowWide,0.03,0.25,0.5,0.025118864315095787,1,0.20192214700000477
89,1197,FarLowWide,0.03,0.25,0.5,0.019952623149688785,1,0.30921398400005273
89,1198,FarLowWide,0.03,0.25,0.5,0.015848931924611124,1,0.10716210200007481
89,1199,FarLowWide,0.03,0.25,0.5,0.012589254117941663,0,0.2411803429995416
