Participant_Number,Trial_Number,Condition,FCfar,FCmed,FCclose,Target_Contrast,Correct_Response,Reaction_Time
82,0,FarHighNarrow,0.2,0.15,0.1,0.1,1,0.7285436790007225
82,1,FarLowNarrow,0.1,0.15,0.2,0.1,1,0.6866055219979899
82,2,FarHighWide,0.5,0.25,0.03,0.1,1,0.6939818859973457
82,3,FarHighWide,0.5,0.25,0.03,0.07943282347242815,1,0.7160349449986825
82,4,ThreeLinesControl,0.0,0.0,0.1,0.1,1,0.3063003409988596
82,5,Constant,0.1,0.1,0.1,0.1,1,0.19817783400139888
82,6,FarHighNarrow,0.2,0.15,0.1,0.07943282347242815,1,0.1803074560011737
82,7,Constant_null,0.1,0.1,0.1,0.1,0,0.16240294100134633
82,8,FarHighWide,0.5,0.25,0.03,0.06309573444801932,1,0.4695369839973864
82,9,FarLowNarrow_null,0.1,0.15,0.2,0.1,1,0.6598262029983744
82,10,FarHighNarrow,0.2,0.15,0.1,0.06309573444801932,1,0.6148819560003176
82,11,Constant,0.1,0.1,0.1,0.07943282347242815,1,0.6362277660009568
82,12,Constant,0.1,0.1,0.1,0.06309573444801932,1,0.6431795100033924
82,13,FarLowWide,0.03,0.25,0.5,0.1,1,0.43243141299899435
82,14,FarHighWide,0.5,0.25,0.03,0.05011872336272722,1,0.5425359580003715
82,15,Constant_null,0.1,0.1,0.1,0.1,1,0.5884600169993064
82,16,Constant,0.1,0.1,0.1,0.05011872336272722,1,0.6016065740004706
82,17,FarHighNarrow,0.2,0.15,0.1,0.05011872336272722,1,0.47169401299834135
82,18,FarLowNarrow,0.1,0.15,0.2,0.07943282347242815,1,0.5422098090020882
82,19,FarHighWide,0.5,0.25,0.03,0.03981071705534971,1,0.5898046459988109
82,20,FarHighNarrow,0.2,0.15,0.1,0.03981071705534971,1,0.5166171509990818
82,21,ThreeLinesControl,0.0,0.0,0.1,0.07943282347242815,1,0.551357858999836
82,22,FarLowNarrow,0.1,0.15,0.2,0.06309573444801932,1,0.3575691600017308
82,23,Constant,0.1,0.1,0.1,0.03981071705534971,1,0.2358741940006439
82,24,ThreeLinesControl,0.0,0.0,0.1,0.06309573444801932,1,0.41443701299795066
82,25,FarHighNarrow,0.2,0.15,0.1,0.031622776601683784,1,0.3401123369985726
82,26,ThreeLinesControl,0.0,0.0,0.1,0.05011872336272722,1,0.5442505270002584
82,27,FarLowNarrow,0.1,0.15,0.2,0.05011872336272722,1,0.533351007001329
82,28,FarLowNarrow,0.1,0.15,0.2,0.03981071705534971,1,0.467584125999565
82,29,Constant_null,0.1,0.1,0.1,0.07943282347242815,1,0.45783268999730353
82,30,FarHighWide,0.5,0.25,0.03,0.031622776601683784,1,0.5257009609995293
82,31,FarLowWide,0.03,0.25,0.5,0.07943282347242815,1,0.612149333999696
82,32,FarLowWide,0.03,0.25,0.5,0.06309573444801932,1,0.49749775899908855
82,33,FarLowNarrow,0.1,0.15,0.2,0.031622776601683784,1,0.3922694200009573
82,34,ThreeLinesControl,0.0,0.0,0.1,0.03981071705534971,1,0.4704226899993955
82,35,ThreeLinesControl,0.0,0.0,0.1,0.031622776601683784,1,0.5890055430027132
82,36,Constant,0.1,0.1,0.1,0.031622776601683784,1,0.5151517700032855
82,37,ThreeLinesControl,0.0,0.0,0.1,0.02511886431509579,1,0.4549083470010373
82,38,FarHighNarrow,0.2,0.15,0.1,0.02511886431509579,1,0.6290430810004182
82,39,FarLowWide,0.03,0.25,0.5,0.05011872336272722,1,0.5790922190026322
82,40,FarHighWide,0.5,0.25,0.03,0.02511886431509579,1,0.7102866829991399
82,41,FarHighNarrow,0.2,0.15,0.1,0.01995262314968879,1,0.6198553739995987
82,42,ThreeLinesControl,0.0,0.0,0.1,0.01995262314968879,1,0.5546817860013107
82,43,FarLowWide,0.03,0.25,0.5,0.03981071705534971,1,0.5577164520000224
82,44,FarHighWide,0.5,0.25,0.03,0.01995262314968879,1,0.6998496190026344
82,45,FarLowNarrow,0.1,0.15,0.2,0.02511886431509579,1,0.3690058020001743
82,46,FarLowWide,0.03,0.25,0.5,0.031622776601683784,1,0.2310636859983788
82,47,ThreeLinesControl,0.0,0.0,0.1,0.015848931924611127,1,0.3892503349998151
82,48,FarHighNarrow,0.2,0.15,0.1,0.015848931924611127,1,0.3954342969991558
82,49,ThreeLinesControl,0.0,0.0,0.1,0.012589254117941666,0,0.617647090999526
82,50,FarHighNarrow,0.2,0.15,0.1,0.012589254117941666,1,0.6958345400016697
82,51,FarLowNarrow,0.1,0.15,0.2,0.01995262314968879,1,0.8379867440016824
82,52,ThreeLinesControl,0.0,0.0,0.1,0.015848931924611127,1,0.7241590160010674
82,53,FarHighNarrow,0.2,0.15,0.1,0.009999999999999995,1,0.6357207010005368
82,54,Constant,0.1,0.1,0.1,0.02511886431509579,1,0.5905597430028138
82,55,FarLowNarrow,0.1,0.15,0.2,0.015848931924611127,1,0.4693766450000112
82,56,Constant,0.1,0.1,0.1,0.01995262314968879,1,0.36768091700287187
82,57,FarLowWide,0.03,0.25,0.5,0.02511886431509579,1,0.5656896520013106
82,58,FarHighWide,0.5,0.25,0.03,0.015848931924611127,1,0.7561761369979649
82,59,Constant,0.1,0.1,0.1,0.015848931924611127,1,0.7590416919993004
82,60,FarLowNarrow,0.1,0.15,0.2,0.012589254117941666,1,0.813403145999473
82,61,FarLowWide,0.03,0.25,0.5,0.01995262314968879,1,0.867234699002438
82,62,ThreeLinesControl,0.0,0.0,0.1,0.012589254117941666,0,0.769647305001854
82,63,FarHighNarrow,0.2,0.15,0.1,0.00794328234724281,1,0.7756651260024228
82,64,FarHighNarrow,0.2,0.15,0.1,0.0063095734448019285,0,0.6219175299993367
82,65,ThreeLinesControl_null,0.0,0.0,0.1,0.1,1,0.6188737010015757
82,66,Constant,0.1,0.1,0.1,0.012589254117941666,1,0.6419054479993065
82,67,Constant,0.1,0.1,0.1,0.009999999999999995,1,0.5755837399992743
82,68,Constant,0.1,0.1,0.1,0.00794328234724281,1,0.9106956510004238
82,69,FarLowNarrow,0.1,0.15,0.2,0.009999999999999995,0,0.6767407360021025
82,70,FarHighNarrow,0.2,0.15,0.1,0.00794328234724281,1,0.5518404690010357
82,71,FarHighWide_null,0.5,0.25,0.03,0.1,1,0.6619644739985233
82,72,FarLowNarrow_null,0.1,0.15,0.2,0.07943282347242815,1,0.6199572730001819
82,73,FarHighNarrow,0.2,0.15,0.1,0.0063095734448019285,0,0.46323538800061215
82,74,FarHighWide,0.5,0.25,0.03,0.012589254117941666,1,0.49337439499868196
82,75,Constant,0.1,0.1,0.1,0.0063095734448019285,0,0.5762917889987875
82,76,FarLowWide,0.03,0.25,0.5,0.015848931924611127,1,0.5747176439981558
82,77,FarLowNarrow,0.1,0.15,0.2,0.012589254117941666,1,0.41280182400078047
82,78,FarHighWide,0.5,0.25,0.03,0.009999999999999995,1,0.3066197279986227
82,79,Constant,0.1,0.1,0.1,0.00794328234724281,1,0.5210922869991919
82,80,FarLowNarrow,0.1,0.15,0.2,0.009999999999999995,1,0.3592442269982712
82,81,FarLowWide,0.03,0.25,0.5,0.012589254117941666,1,0.6133126780005114
82,82,ThreeLinesControl,0.0,0.0,0.1,0.015848931924611127,0,0.8585803940004553
82,83,ThreeLinesControl,0.0,0.0,0.1,0.01995262314968879,1,0.8330095040000742
82,84,Constant,0.1,0.1,0.1,0.0063095734448019285,0,0.7924204569972062
82,85,FarLowNarrow,0.1,0.15,0.2,0.00794328234724281,1,0.8232547089974105
82,86,FarHighWide,0.5,0.25,0.03,0.00794328234724281,1,0.8020446139998967
82,87,ThreeLinesControl,0.0,0.0,0.1,0.015848931924611127,1,0.695371386998886
82,88,Constant_null,0.1,0.1,0.1,0.06309573444801932,1,0.5954001509999216
82,89,FarHighWide,0.5,0.25,0.03,0.0063095734448019285,0,0.6384801490021346
82,90,FarLowWide,0.03,0.25,0.5,0.009999999999999995,0,0.7090591639971535
82,91,FarHighWide,0.5,0.25,0.03,0.00794328234724281,1,0.6005673789986758
82,92,ThreeLinesControl,0.0,0.0,0.1,0.012589254117941666,1,0.6790242999995826
82,93,Constant,0.1,0.1,0.1,0.00794328234724281,0,0.7173728070010839
82,94,ThreeLinesControl,0.0,0.0,0.1,0.009999999999999995,1,0.6914870569999039
82,95,FarHighWide,0.5,0.25,0.03,0.0063095734448019285,1,0.6253201379986422
82,96,FarLowWide,0.03,0.25,0.5,0.012589254117941666,0,0.6943804110014753
82,97,FarHighNarrow,0.2,0.15,0.1,0.00794328234724281,0,0.8767607970003155
82,98,Constant,0.1,0.1,0.1,0.009999999999999995,0,0.8187864809988241
82,99,FarHighNarrow,0.2,0.15,0.1,0.009999999999999995,1,0.6090278990013758
82,100,FarLowNarrow,0.1,0.15,0.2,0.0063095734448019285,0,0.8793579699995462
82,101,ThreeLinesControl_null,0.0,0.0,0.1,0.07943282347242815,1,0.6053138280003623
82,102,Constant_null,0.1,0.1,0.1,0.05011872336272722,1,0.6254927019981551
82,103,FarHighNarrow,0.2,0.15,0.1,0.00794328234724281,0,0.9507088850004948
82,104,FarLowNarrow,0.1,0.15,0.2,0.00794328234724281,1,0.5246510420001869
82,105,FarLowWide,0.03,0.25,0.5,0.015848931924611127,1,0.784074037001119
82,106,FarHighNarrow_null,0.2,0.15,0.1,0.1,1,0.6621255120007845
82,107,FarLowNarrow,0.1,0.15,0.2,0.0063095734448019285,0,0.7643096609972417
82,108,FarLowNarrow,0.1,0.15,0.2,0.00794328234724281,1,0.8325165370006289
82,109,Constant,0.1,0.1,0.1,0.012589254117941666,1,0.7426510470031644
82,110,FarHighNarrow,0.2,0.15,0.1,0.009999999999999995,1,0.8765535419988737
82,111,FarHighNarrow,0.2,0.15,0.1,0.00794328234724281,1,0.6175811159992008
82,112,Constant,0.1,0.1,0.1,0.009999999999999995,0,0.863885319999099
82,113,FarHighWide,0.5,0.25,0.03,0.005011872336272719,0,0.8461208519984211
82,114,ThreeLinesControl,0.0,0.0,0.1,0.00794328234724281,1,1.0203797560025123
82,115,FarLowWide,0.03,0.25,0.5,0.012589254117941666,1,1.0664563149985042
82,116,FarHighWide_null,0.5,0.25,0.03,0.07943282347242815,0,0.9770481799969275
82,117,FarLowNarrow,0.1,0.15,0.2,0.0063095734448019285,0,99
82,118,FarLowNarrow,0.1,0.15,0.2,0.00794328234724281,1,0.606223566999688
82,119,Constant,0.1,0.1,0.1,0.012589254117941666,1,0.46508483499928843
82,120,FarLowNarrow,0.1,0.15,0.2,0.0063095734448019285,0,0.7194999909988837
82,121,FarHighNarrow,0.2,0.15,0.1,0.0063095734448019285,0,0.4214512739999918
82,122,Constant,0.1,0.1,0.1,0.009999999999999995,0,0.3597518089991354
82,123,FarHighNarrow_null,0.2,0.15,0.1,0.07943282347242815,1,0.317799174998072
82,124,FarLowNarrow,0.1,0.15,0.2,0.00794328234724281,1,0.38819594899905496
82,125,ThreeLinesControl,0.0,0.0,0.1,0.0063095734448019285,0,0.47312045999933616
82,126,ThreeLinesControl,0.0,0.0,0.1,0.00794328234724281,1,0.5982992290009861
82,127,FarHighNarrow,0.2,0.15,0.1,0.00794328234724281,1,0.4291989960001956
82,128,ThreeLinesControl,0.0,0.0,0.1,0.0063095734448019285,1,0.39450269599910825
82,129,FarLowNarrow,0.1,0.15,0.2,0.0063095734448019285,0,0.7688007120013935
82,130,FarLowWide,0.03,0.25,0.5,0.009999999999999995,0,0.6164500750019215
82,131,Constant,0.1,0.1,0.1,0.012589254117941666,0,0.4699501079994661
82,132,ThreeLinesControl_null,0.0,0.0,0.1,0.06309573444801932,1,0.3000333470008627
82,133,Constant,0.1,0.1,0.1,0.015848931924611127,0,0.23347962200205075
82,134,FarHighWide,0.5,0.25,0.03,0.0063095734448019285,1,0.1674776460022258
82,135,FarLowNarrow,0.1,0.15,0.2,0.00794328234724281,1,0.26935734499784303
82,136,FarLowWide,0.03,0.25,0.5,0.012589254117941666,1,0.42485774799934006
82,137,ThreeLinesControl,0.0,0.0,0.1,0.005011872336272719,0,0.8307215599998017
82,138,FarHighWide,0.5,0.25,0.03,0.005011872336272719,0,0.6901232279997203
82,139,FarLowNarrow,0.1,0.15,0.2,0.0063095734448019285,1,0.6083292590010387
82,140,ThreeLinesControl_null,0.0,0.0,0.1,0.05011872336272722,0,0.7663386839994928
82,141,FarHighNarrow_null,0.2,0.15,0.1,0.06309573444801932,0,0.7142951220012037
82,142,FarLowNarrow_null,0.1,0.15,0.2,0.06309573444801932,1,0.2888286719971802
82,143,FarHighNarrow_null,0.2,0.15,0.1,0.07943282347242814,1,0.43866033499944024
82,144,Constant,0.1,0.1,0.1,0.01995262314968879,1,0.549000850001903
82,145,Constant,0.1,0.1,0.1,0.015848931924611127,1,0.641094016002171
82,146,FarLowNarrow_null,0.1,0.15,0.2,0.05011872336272722,1,0.6489556250016904
82,147,Constant,0.1,0.1,0.1,0.012589254117941666,1,0.5260882939983276
82,148,FarLowNarrow_null,0.1,0.15,0.2,0.03981071705534971,1,0.622430457999144
82,149,ThreeLinesControl,0.0,0.0,0.1,0.0063095734448019285,0,0.5778471729972807
82,150,FarHighNarrow,0.2,0.15,0.1,0.0063095734448019285,0,0.5676399420008238
82,151,FarHighNarrow_null,0.2,0.15,0.1,0.06309573444801932,1,0.7647789800030296
82,152,FarLowWide,0.03,0.25,0.5,0.009999999999999995,0,0.5369292550021783
82,153,FarHighWide,0.5,0.25,0.03,0.0063095734448019285,1,0.5022797720012022
82,154,FarLowWide_null,0.03,0.25,0.5,0.1,1,0.5164162630026112
82,155,FarHighNarrow,0.2,0.15,0.1,0.00794328234724281,1,0.5435743170019123
82,156,FarLowNarrow_null,0.1,0.15,0.2,0.031622776601683784,1,0.8454914180001651
82,157,FarLowNarrow,0.1,0.15,0.2,0.005011872336272719,0,0.523045011999784
82,158,FarHighWide,0.5,0.25,0.03,0.005011872336272719,1,0.28093447600258514
82,159,FarHighWide,0.5,0.25,0.03,0.00398107170553497,0,0.4472492759996385
82,160,Constant,0.1,0.1,0.1,0.009999999999999995,1,0.5561306449999392
82,161,FarLowWide,0.03,0.25,0.5,0.012589254117941666,1,0.5544465099992522
82,162,FarHighNarrow,0.2,0.15,0.1,0.0063095734448019285,0,0.44875419399977545
82,163,FarLowNarrow,0.1,0.15,0.2,0.0063095734448019285,0,0.4239261929978966
82,164,FarLowNarrow,0.1,0.15,0.2,0.00794328234724281,1,0.39839066499916953
82,165,ThreeLinesControl,0.0,0.0,0.1,0.00794328234724281,1,0.5489156780022313
82,166,FarLowWide,0.03,0.25,0.5,0.009999999999999995,0,0.45699870200041914
82,167,FarLowWide,0.03,0.25,0.5,0.012589254117941666,0,0.5512389260002237
82,168,FarHighNarrow,0.2,0.15,0.1,0.00794328234724281,1,0.33837214400045923
82,169,FarHighNarrow,0.2,0.15,0.1,0.0063095734448019285,1,0.3446030699997209
82,170,FarHighWide,0.5,0.25,0.03,0.00501187233627272,0,0.765745484000945
82,171,FarHighWide,0.5,0.25,0.03,0.006309573444801929,0,0.7938715149975906
82,172,FarHighWide,0.5,0.25,0.03,0.007943282347242812,1,0.632033590998617
82,173,FarHighNarrow,0.2,0.15,0.1,0.005011872336272719,1,0.5251105949973862
82,174,FarHighNarrow_null,0.2,0.15,0.1,0.05011872336272722,1,0.5303806399970199
82,175,FarHighWide,0.5,0.25,0.03,0.006309573444801929,1,0.5763038849981967
82,176,FarLowWide,0.03,0.25,0.5,0.015848931924611127,1,1.1106912579998607
82,177,FarLowWide,0.03,0.25,0.5,0.012589254117941666,0,0.6532267810034682
82,178,ThreeLinesControl,0.0,0.0,0.1,0.0063095734448019285,0,0.3389270439984102
82,179,ThreeLinesControl,0.0,0.0,0.1,0.00794328234724281,0,99
82,180,FarLowWide,0.03,0.25,0.5,0.015848931924611127,1,0.2562848859997757
82,181,FarHighNarrow,0.2,0.15,0.1,0.00398107170553497,1,0.22268050300044706
82,182,FarHighWide,0.5,0.25,0.03,0.00501187233627272,1,0.4746865830020397
82,183,ThreeLinesControl,0.0,0.0,0.1,0.009999999999999995,1,0.5447503540017351
82,184,ThreeLinesControl,0.0,0.0,0.1,0.00794328234724281,1,0.6359815159994469
82,185,ThreeLinesControl,0.0,0.0,0.1,0.0063095734448019285,0,99
82,186,FarLowNarrow,0.1,0.15,0.2,0.0063095734448019285,0,0.5918173999998544
82,187,ThreeLinesControl,0.0,0.0,0.1,0.00794328234724281,0,0.5953483449993655
82,188,FarLowWide,0.03,0.25,0.5,0.012589254117941666,0,0.48156905900032143
82,189,FarLowNarrow,0.1,0.15,0.2,0.00794328234724281,0,0.5355976129976625
82,190,ThreeLinesControl,0.0,0.0,0.1,0.009999999999999995,1,0.35656792000008863
82,191,FarHighWide,0.5,0.25,0.03,0.00398107170553497,1,0.5947791289981978
82,192,ThreeLinesControl,0.0,0.0,0.1,0.00794328234724281,0,0.6969448399977409
82,193,FarHighWide,0.5,0.25,0.03,0.0031622776601683772,1,0.7821509160021378
82,194,FarLowNarrow_null,0.1,0.15,0.2,0.02511886431509579,1,0.6694097020008485
82,195,FarLowWide,0.03,0.25,0.5,0.015848931924611127,0,0.5396985750012391
82,196,FarLowNarrow,0.1,0.15,0.2,0.009999999999999995,0,0.5618764520004333
82,197,Constant,0.1,0.1,0.1,0.00794328234724281,1,0.48898981499951333
82,198,FarHighNarrow,0.2,0.15,0.1,0.0031622776601683772,1,0.6681466679983714
82,199,Constant_null,0.1,0.1,0.1,0.03981071705534971,1,0.7950080720002006
82,200,FarLowWide,0.03,0.25,0.5,0.01995262314968879,1,0.5200366699973529
82,201,Constant,0.1,0.1,0.1,0.0063095734448019285,0,0.420396608998999
82,202,FarHighNarrow,0.2,0.15,0.1,0.002511886431509578,0,0.48948250399917015
82,203,Constant,0.1,0.1,0.1,0.00794328234724281,0,0.4527095149969682
82,204,FarLowWide,0.03,0.25,0.5,0.015848931924611127,1,0.3630328919971362
82,205,ThreeLinesControl,0.0,0.0,0.1,0.009999999999999995,0,0.39187619400036056
82,206,FarHighNarrow_null,0.2,0.15,0.1,0.03981071705534971,1,0.2779176969997934
82,207,FarLowNarrow,0.1,0.15,0.2,0.012589254117941666,1,0.5322679620003328
82,208,FarHighNarrow,0.2,0.15,0.1,0.0031622776601683772,1,0.33054668299882906
82,209,FarLowNarrow,0.1,0.15,0.2,0.009999999999999995,1,0.6647075879991462
82,210,FarHighWide,0.5,0.25,0.03,0.002511886431509578,0,0.597641473999829
82,211,FarHighNarrow_null,0.2,0.15,0.1,0.031622776601683784,1,0.5891199450015847
82,212,Constant,0.1,0.1,0.1,0.009999999999999995,0,0.37950623799770256
82,213,Constant,0.1,0.1,0.1,0.012589254117941666,1,0.3933484449989919
82,214,ThreeLinesControl,0.0,0.0,0.1,0.012589254117941666,0,0.3333543760018074
82,215,FarHighWide,0.5,0.25,0.03,0.0031622776601683772,0,0.3393275260023074
82,216,FarHighWide,0.5,0.25,0.03,0.00398107170553497,0,0.36961061300098663
82,217,FarLowWide,0.03,0.25,0.5,0.012589254117941666,0,0.6443814609992842
82,218,FarLowWide_null,0.03,0.25,0.5,0.07943282347242815,1,0.4337809719982033
82,219,FarHighNarrow,0.2,0.15,0.1,0.002511886431509578,1,0.3029115030003595
82,220,Constant,0.1,0.1,0.1,0.009999999999999995,1,0.37129905600158963
82,221,ThreeLinesControl,0.0,0.0,0.1,0.015848931924611127,1,0.3362080349979806
82,222,FarLowWide_null,0.03,0.25,0.5,0.06309573444801932,1,0.5740969660000701
82,223,Constant,0.1,0.1,0.1,0.00794328234724281,1,0.9725993770007335
82,224,Constant,0.1,0.1,0.1,0.0063095734448019285,1,0.6030063030011661
82,225,Constant_null,0.1,0.1,0.1,0.031622776601683784,1,0.6331451090009068
82,226,FarHighNarrow,0.2,0.15,0.1,0.001995262314968878,0,0.5751843719990575
82,227,FarLowWide_null,0.03,0.25,0.5,0.05011872336272722,1,0.5733021189989813
82,228,Constant,0.1,0.1,0.1,0.005011872336272719,0,0.667754149002576
82,229,FarLowNarrow,0.1,0.15,0.2,0.00794328234724281,0,0.5617570319991501
82,230,Constant,0.1,0.1,0.1,0.0063095734448019285,1,0.32940872900144313
82,231,ThreeLinesControl,0.0,0.0,0.1,0.012589254117941666,1,0.3957686659996398
82,232,Constant,0.1,0.1,0.1,0.005011872336272719,0,0.4180606860027183
82,233,FarHighWide,0.5,0.25,0.03,0.00501187233627272,1,0.5649281369987875
82,234,FarLowNarrow,0.1,0.15,0.2,0.009999999999999995,1,0.5632203320019471
82,235,FarHighNarrow,0.2,0.15,0.1,0.002511886431509578,0,0.5454662640004244
82,236,ThreeLinesControl,0.0,0.0,0.1,0.009999999999999995,1,0.6053394029986521
82,237,FarHighNarrow,0.2,0.15,0.1,0.0031622776601683772,0,0.4989051379998273
82,238,FarHighWide,0.5,0.25,0.03,0.00398107170553497,0,0.21698058100082562
82,239,FarHighWide,0.5,0.25,0.03,0.00501187233627272,0,0.39113523199921474
82,240,FarLowWide,0.03,0.25,0.5,0.015848931924611127,0,0.4255728070020268
82,241,FarLowNarrow,0.1,0.15,0.2,0.00794328234724281,0,0.27979166499790153
82,242,Constant,0.1,0.1,0.1,0.0063095734448019285,0,0.38170703899959335
82,243,FarLowWide,0.03,0.25,0.5,0.01995262314968879,1,0.3558985390009184
82,244,Constant,0.1,0.1,0.1,0.00794328234724281,0,0.3387512630033598
82,245,FarLowWide,0.03,0.25,0.5,0.015848931924611127,0,0.24869984299948555
82,246,FarHighNarrow,0.2,0.15,0.1,0.00398107170553497,1,0.3200917699978163
82,247,FarHighNarrow,0.2,0.15,0.1,0.0031622776601683772,0,0.579489994001051
82,248,ThreeLinesControl,0.0,0.0,0.1,0.00794328234724281,1,0.32083749899902614
82,249,FarHighWide,0.5,0.25,0.03,0.006309573444801929,0,0.41294802899938077
82,250,FarLowNarrow,0.1,0.15,0.2,0.009999999999999995,1,0.5702628449980693
82,251,FarHighNarrow,0.2,0.15,0.1,0.00398107170553497,0,0.5280822269996861
82,252,FarLowNarrow,0.1,0.15,0.2,0.00794328234724281,1,0.3956726360011089
82,253,FarHighNarrow,0.2,0.15,0.1,0.00501187233627272,0,0.5211514789989451
82,254,FarLowWide,0.03,0.25,0.5,0.01995262314968879,1,0.3596863519996987
82,255,FarLowWide,0.03,0.25,0.5,0.015848931924611127,1,0.35786895799901686
82,256,FarLowNarrow,0.1,0.15,0.2,0.0063095734448019285,0,0.508030406999751
82,257,FarLowWide,0.03,0.25,0.5,0.012589254117941666,0,0.44905960200048867
82,258,ThreeLinesControl,0.0,0.0,0.1,0.0063095734448019285,0,0.3590984149996075
82,259,FarHighNarrow,0.2,0.15,0.1,0.006309573444801929,1,0.3175287250014662
82,260,ThreeLinesControl,0.0,0.0,0.1,0.00794328234724281,1,0.6507757350009342
82,261,FarHighWide,0.5,0.25,0.03,0.007943282347242812,1,0.6102724339980341
82,262,FarLowWide,0.03,0.25,0.5,0.015848931924611127,1,0.5998732129992277
82,263,FarLowNarrow_null,0.1,0.15,0.2,0.01995262314968879,0,0.546945827001764
82,264,FarHighNarrow,0.2,0.15,0.1,0.00501187233627272,0,0.4172370119995321
82,265,Constant,0.1,0.1,0.1,0.009999999999999995,1,0.47018118600317393
82,266,FarHighWide,0.5,0.25,0.03,0.006309573444801929,1,0.5064778909982124
82,267,Constant,0.1,0.1,0.1,0.00794328234724281,0,0.5203613770027005
82,268,FarLowWide,0.03,0.25,0.5,0.012589254117941666,0,0.5080165149993263
82,269,FarHighNarrow,0.2,0.15,0.1,0.006309573444801929,1,0.4335089960004552
82,270,Constant,0.1,0.1,0.1,0.009999999999999995,1,0.4641866960009793
82,271,FarLowWide,0.03,0.25,0.5,0.015848931924611127,1,0.7340231509988371
82,272,FarHighWide_null,0.5,0.25,0.03,0.1,1,0.7083375930014881
82,273,FarLowWide,0.03,0.25,0.5,0.012589254117941666,0,0.6985578579988214
82,274,ThreeLinesControl,0.0,0.0,0.1,0.0063095734448019285,1,0.6326008230025764
82,275,Constant,0.1,0.1,0.1,0.00794328234724281,1,0.8696167990019603
82,276,FarHighNarrow,0.2,0.15,0.1,0.00501187233627272,0,0.5890710250023403
82,277,FarLowWide,0.03,0.25,0.5,0.015848931924611127,1,0.47417308399963076
82,278,FarLowWide,0.03,0.25,0.5,0.012589254117941666,1,0.46578252999825054
82,279,FarHighNarrow,0.2,0.15,0.1,0.006309573444801929,1,0.5004620799991244
82,280,FarHighNarrow,0.2,0.15,0.1,0.00501187233627272,0,0.29742638699826784
82,281,FarHighWide,0.5,0.25,0.03,0.00501187233627272,0,0.6153496500010078
82,282,FarLowNarrow,0.1,0.15,0.2,0.00794328234724281,1,0.5946870440020575
82,283,ThreeLinesControl,0.0,0.0,0.1,0.005011872336272719,0,0.6810321369994199
82,284,FarHighNarrow,0.2,0.15,0.1,0.006309573444801929,0,0.6312642019984196
82,285,FarHighWide,0.5,0.25,0.03,0.006309573444801929,1,0.7075923160009552
82,286,FarLowWide,0.03,0.25,0.5,0.009999999999999995,0,0.6975485639995895
82,287,FarLowWide,0.03,0.25,0.5,0.012589254117941666,0,0.7035284869998577
82,288,FarHighNarrow,0.2,0.15,0.1,0.007943282347242812,1,0.437778341001831
82,289,Constant,0.1,0.1,0.1,0.0063095734448019285,0,0.5398308879994147
82,290,Constant,0.1,0.1,0.1,0.00794328234724281,0,0.43413039200095227
82,291,Constant_null,0.1,0.1,0.1,0.02511886431509579,1,0.7212039260011807
82,292,FarHighNarrow,0.2,0.15,0.1,0.006309573444801929,0,0.759358858998894
82,293,FarLowWide,0.03,0.25,0.5,0.015848931924611127,1,0.5499126089998754
82,294,FarLowNarrow,0.1,0.15,0.2,0.0063095734448019285,1,0.6274162610025087
82,295,FarHighWide,0.5,0.25,0.03,0.00501187233627272,0,0.5986829869980284
82,296,FarHighWide,0.5,0.25,0.03,0.006309573444801929,0,0.5568804520007689
82,297,FarHighNarrow,0.2,0.15,0.1,0.007943282347242812,0,0.6029011889986577
82,298,Constant,0.1,0.1,0.1,0.009999999999999995,1,0.5822062049992383
82,299,ThreeLinesControl,0.0,0.0,0.1,0.0063095734448019285,0,99
82,300,FarLowWide,0.03,0.25,0.5,0.012589254117941666,1,0.8424693329980073
82,301,ThreeLinesControl,0.0,0.0,0.1,0.00794328234724281,0,0.542269056000805
82,302,ThreeLinesControl,0.0,0.0,0.1,0.009999999999999995,0,0.3888502419977158
82,303,FarLowNarrow,0.1,0.15,0.2,0.005011872336272719,1,0.4350695489993086
82,304,FarLowWide,0.03,0.25,0.5,0.009999999999999995,0,0.5689716230008344
82,305,Constant,0.1,0.1,0.1,0.00794328234724281,0,0.6632908669998869
82,306,ThreeLinesControl,0.0,0.0,0.1,0.012589254117941666,0,0.3894591250027588
82,307,FarHighWide,0.5,0.25,0.03,0.007943282347242812,1,0.45161254499907955
82,308,FarLowNarrow,0.1,0.15,0.2,0.00398107170553497,0,0.5057555569983379
82,309,Constant,0.1,0.1,0.1,0.009999999999999995,1,0.3986896850001358
82,310,ThreeLinesControl,0.0,0.0,0.1,0.015848931924611127,1,0.41289919200062286
82,311,ThreeLinesControl,0.0,0.0,0.1,0.012589254117941666,0,0.40323012699809624
82,312,FarLowWide,0.03,0.25,0.5,0.012589254117941666,0,0.22337042599974666
82,313,Constant,0.1,0.1,0.1,0.00794328234724281,0,99
82,314,Constant,0.1,0.1,0.1,0.009999999999999995,1,0.5114795389999927
82,315,ThreeLinesControl_null,0.0,0.0,0.1,0.06309573444801932,1,0.637567110999953
82,316,FarLowWide,0.03,0.25,0.5,0.015848931924611127,0,0.49107763600113685
82,317,Constant,0.1,0.1,0.1,0.00794328234724281,0,0.5752609740011394
82,318,Constant,0.1,0.1,0.1,0.009999999999999995,1,0.4610517010005424
82,319,FarHighWide,0.5,0.25,0.03,0.006309573444801929,0,0.4755181399996218
82,320,Constant,0.1,0.1,0.1,0.00794328234724281,1,0.4095928660026402
82,321,FarLowWide,0.03,0.25,0.5,0.01995262314968879,1,0.39168976500150166
82,322,FarLowWide_null,0.03,0.25,0.5,0.03981071705534971,1,0.445800595000037
82,323,Constant,0.1,0.1,0.1,0.0063095734448019285,0,0.35634454099999857
82,324,FarLowNarrow,0.1,0.15,0.2,0.00501187233627272,0,0.3628180439991411
82,325,FarLowWide,0.03,0.25,0.5,0.015848931924611127,1,0.5034806389994628
82,326,Constant,0.1,0.1,0.1,0.00794328234724281,1,0.4694180229998892
82,327,Constant,0.1,0.1,0.1,0.0063095734448019285,0,0.3794101999992563
82,328,FarHighWide,0.5,0.25,0.03,0.007943282347242812,1,0.3185644619989034
82,329,FarHighNarrow,0.2,0.15,0.1,0.009999999999999997,1,0.44507031600005575
82,330,FarHighNarrow,0.2,0.15,0.1,0.007943282347242812,0,0.5140689330000896
82,331,FarLowWide,0.03,0.25,0.5,0.012589254117941666,0,0.4220957500001532
82,332,FarLowWide,0.03,0.25,0.5,0.015848931924611127,0,0.39512095199825126
82,333,ThreeLinesControl,0.0,0.0,0.1,0.015848931924611127,1,0.5521880029991735
82,334,FarLowNarrow,0.1,0.15,0.2,0.006309573444801929,0,0.5746344359977229
82,335,ThreeLinesControl,0.0,0.0,0.1,0.012589254117941666,1,0.533391072996892
82,336,ThreeLinesControl_null,0.0,0.0,0.1,0.05011872336272722,1,0.6189571020004223
82,337,ThreeLinesControl,0.0,0.0,0.1,0.009999999999999995,1,0.4728665250004269
82,338,FarLowWide,0.03,0.25,0.5,0.01995262314968879,1,0.42323642300107167
82,339,FarLowNarrow_null,0.1,0.15,0.2,0.025118864315095794,1,0.29318531199896825
82,340,FarHighNarrow,0.2,0.15,0.1,0.009999999999999997,1,0.5164855020011601
82,341,FarHighNarrow,0.2,0.15,0.1,0.007943282347242812,0,0.3385743789986009
82,342,ThreeLinesControl,0.0,0.0,0.1,0.00794328234724281,0,0.2865329069973086
82,343,ThreeLinesControl,0.0,0.0,0.1,0.009999999999999995,0,0.6365376219982863
82,344,Constant,0.1,0.1,0.1,0.00794328234724281,1,0.5361087370001769
82,345,FarLowNarrow,0.1,0.15,0.2,0.007943282347242812,0,0.49411567999777617
82,346,FarLowWide,0.03,0.25,0.5,0.015848931924611127,1,0.5079435789994022
82,347,ThreeLinesControl,0.0,0.0,0.1,0.012589254117941666,0,0.503509631002089
82,348,FarHighWide,0.5,0.25,0.03,0.006309573444801929,1,0.47770409399890923
82,349,Constant,0.1,0.1,0.1,0.0063095734448019285,0,0.5396147739993467
82,350,FarLowNarrow,0.1,0.15,0.2,0.009999999999999997,0,0.4251713630001177
82,351,FarHighWide,0.5,0.25,0.03,0.00501187233627272,0,0.3744817599981616
82,352,FarLowWide_null,0.03,0.25,0.5,0.031622776601683784,1,0.43734214800133486
82,353,FarLowNarrow,0.1,0.15,0.2,0.012589254117941668,1,0.5463785939973604
82,354,ThreeLinesControl,0.0,0.0,0.1,0.015848931924611127,1,0.6322178430018539
82,355,FarHighWide,0.5,0.25,0.03,0.006309573444801929,0,0.5437963199983642
82,356,FarHighWide,0.5,0.25,0.03,0.007943282347242812,0,0.39843498499976704
82,357,FarLowNarrow,0.1,0.15,0.2,0.009999999999999997,0,0.38027525000143214
82,358,FarHighWide,0.5,0.25,0.03,0.009999999999999997,0,0.4890277300000889
82,359,FarHighWide,0.5,0.25,0.03,0.012589254117941668,0,0.3192505089973565
82,360,ThreeLinesControl,0.0,0.0,0.1,0.012589254117941666,0,0.5382905770020443
82,361,FarHighWide_null,0.5,0.25,0.03,0.07943282347242815,1,0.4727332140028011
82,362,FarLowNarrow,0.1,0.15,0.2,0.012589254117941668,0,0.21989862199916388
82,363,FarLowNarrow,0.1,0.15,0.2,0.01584893192461113,1,0.322216987999127
82,364,Constant,0.1,0.1,0.1,0.00794328234724281,0,0.5042571719968691
82,365,FarHighNarrow,0.2,0.15,0.1,0.009999999999999997,1,0.3794408799985831
82,366,Constant,0.1,0.1,0.1,0.009999999999999995,0,0.5214742249991104
82,367,Constant,0.1,0.1,0.1,0.012589254117941666,0,0.29462642399812466
82,368,ThreeLinesControl,0.0,0.0,0.1,0.015848931924611127,1,0.4372027130011702
82,369,FarLowWide,0.03,0.25,0.5,0.012589254117941666,1,0.4829415709973546
82,370,FarLowWide,0.03,0.25,0.5,0.009999999999999995,0,0.47315762599828304
82,371,FarLowNarrow,0.1,0.15,0.2,0.012589254117941668,0,0.6231737570014957
82,372,Constant,0.1,0.1,0.1,0.015848931924611127,1,0.38852843399945414
82,373,FarHighWide,0.5,0.25,0.03,0.01584893192461113,1,0.3217136439998285
82,374,Constant,0.1,0.1,0.1,0.012589254117941666,1,0.37689558399870293
82,375,Constant,0.1,0.1,0.1,0.009999999999999995,1,0.2545769600001222
82,376,FarLowNarrow,0.1,0.15,0.2,0.01584893192461113,1,0.5620289079997747
82,377,FarHighWide,0.5,0.25,0.03,0.012589254117941668,1,0.5200679109984776
82,378,FarLowNarrow_null,0.1,0.15,0.2,0.01995262314968879,1,0.41221906599821523
82,379,FarHighNarrow,0.2,0.15,0.1,0.007943282347242812,1,0.4094406210024317
82,380,FarHighWide,0.5,0.25,0.03,0.009999999999999997,1,0.7836239289972582
82,381,Constant_null,0.1,0.1,0.1,0.01995262314968879,1,0.71484464400055
82,382,FarLowWide,0.03,0.25,0.5,0.012589254117941666,0,0.5929718430015782
82,383,Constant,0.1,0.1,0.1,0.00794328234724281,0,0.5350653780005814
82,384,Constant,0.1,0.1,0.1,0.009999999999999995,1,0.4932961080012319
82,385,FarHighWide,0.5,0.25,0.03,0.007943282347242812,1,0.5233448239996505
82,386,Constant,0.1,0.1,0.1,0.00794328234724281,1,0.5202585480001289
82,387,FarHighWide,0.5,0.25,0.03,0.006309573444801929,0,0.50263475400061
82,388,FarLowWide,0.03,0.25,0.5,0.015848931924611127,1,0.6608898369995586
82,389,FarLowNarrow_null,0.1,0.15,0.2,0.015848931924611127,1,0.6592047979975177
82,390,Constant,0.1,0.1,0.1,0.0063095734448019285,0,0.3934496290021343
82,391,FarHighWide,0.5,0.25,0.03,0.007943282347242812,1,0.5047208670002874
82,392,Constant,0.1,0.1,0.1,0.00794328234724281,0,0.3712513169994054
82,393,Constant,0.1,0.1,0.1,0.009999999999999995,0,0.5135172889968089
82,394,FarLowWide,0.03,0.25,0.5,0.012589254117941666,0,0.5996160750000854
82,395,FarHighNarrow,0.2,0.15,0.1,0.006309573444801929,1,0.5310085890014307
82,396,FarLowNarrow,0.1,0.15,0.2,0.012589254117941668,1,0.816795037000702
82,397,FarHighNarrow,0.2,0.15,0.1,0.00501187233627272,1,0.868378028000734
82,398,FarLowWide,0.03,0.25,0.5,0.015848931924611127,0,0.7382551279988547
82,399,FarHighNarrow,0.2,0.15,0.1,0.00398107170553497,0,0.6965416919993004
82,400,ThreeLinesControl,0.0,0.0,0.1,0.012589254117941666,1,0.5182087539978966
82,401,FarLowNarrow,0.1,0.15,0.2,0.009999999999999997,1,0.5963176299992483
82,402,FarLowWide_null,0.03,0.25,0.5,0.02511886431509579,1,0.6983296899998095
82,403,FarLowNarrow,0.1,0.15,0.2,0.007943282347242812,0,0.608077159999084
82,404,FarLowNarrow,0.1,0.15,0.2,0.009999999999999997,0,0.4222728550012107
82,405,Constant,0.1,0.1,0.1,0.012589254117941666,0,0.6686418550016242
82,406,ThreeLinesControl,0.0,0.0,0.1,0.009999999999999995,0,0.8265038839999761
82,407,FarHighNarrow_null,0.2,0.15,0.1,0.02511886431509579,1,0.7696271749991865
82,408,Constant,0.1,0.1,0.1,0.015848931924611127,1,0.5888730239967117
82,409,FarLowNarrow,0.1,0.15,0.2,0.012589254117941668,0,0.5389017050001712
82,410,ThreeLinesControl,0.0,0.0,0.1,0.012589254117941666,0,0.4970087709989457
82,411,Constant,0.1,0.1,0.1,0.012589254117941666,0,0.4760742510006821
82,412,FarLowNarrow,0.1,0.15,0.2,0.01584893192461113,1,0.5052609580015996
82,413,ThreeLinesControl,0.0,0.0,0.1,0.015848931924611127,1,0.5273963979998371
82,414,FarHighNarrow_null,0.2,0.15,0.1,0.01995262314968879,1,0.6273785929988662
82,415,FarHighNarrow,0.2,0.15,0.1,0.00501187233627272,0,0.6419424150008126
82,416,FarHighWide,0.5,0.25,0.03,0.006309573444801929,0,0.5518076959997416
82,417,Constant,0.1,0.1,0.1,0.015848931924611127,1,0.42917425300038303
82,418,ThreeLinesControl,0.0,0.0,0.1,0.012589254117941666,1,0.5872529309999663
82,419,FarLowNarrow,0.1,0.15,0.2,0.012589254117941668,0,0.6094614779976837
82,420,FarHighNarrow,0.2,0.15,0.1,0.006309573444801929,0,0.5353942840010859
82,421,FarLowNarrow_null,0.1,0.15,0.2,0.012589254117941666,1,0.3337608860019827
82,422,FarHighNarrow_null,0.2,0.15,0.1,0.015848931924611127,1,0.412283200003003
82,423,Constant,0.1,0.1,0.1,0.012589254117941666,0,0.46739425999840023
82,424,FarLowWide_null,0.03,0.25,0.5,0.01995262314968879,1,0.5820734439985245
82,425,FarLowWide,0.03,0.25,0.5,0.01995262314968879,1,0.6353391430020565
82,426,FarLowNarrow,0.1,0.15,0.2,0.01584893192461113,1,0.641336037999281
82,427,ThreeLinesControl,0.0,0.0,0.1,0.009999999999999995,1,0.7324541820016748
82,428,ThreeLinesControl_null,0.0,0.0,0.1,0.03981071705534971,1,0.7308193600001687
82,429,FarLowNarrow_null,0.1,0.15,0.2,0.009999999999999995,1,0.7128373749983439
82,430,ThreeLinesControl,0.0,0.0,0.1,0.00794328234724281,0,0.8191658249998
82,431,Constant,0.1,0.1,0.1,0.015848931924611127,1,0.7050589559985383
82,432,FarHighWide,0.5,0.25,0.03,0.007943282347242812,1,0.7831884430015634
82,433,ThreeLinesControl,0.0,0.0,0.1,0.009999999999999995,0,0.6534885979999672
82,434,Constant,0.1,0.1,0.1,0.012589254117941666,1,0.5304769869981101
82,435,FarHighNarrow,0.2,0.15,0.1,0.007943282347242812,0,0.5846754039994266
82,436,FarHighWide,0.5,0.25,0.03,0.006309573444801929,1,0.6469389960002445
82,437,ThreeLinesControl,0.0,0.0,0.1,0.012589254117941666,0,0.6611070459985058
82,438,ThreeLinesControl,0.0,0.0,0.1,0.015848931924611127,0,0.5394144800011418
82,439,FarHighWide,0.5,0.25,0.03,0.00501187233627272,1,0.6413155049995112
82,440,FarHighNarrow,0.2,0.15,0.1,0.009999999999999997,0,0.487630428000557
82,441,ThreeLinesControl,0.0,0.0,0.1,0.01995262314968879,0,0.5225451980004436
82,442,ThreeLinesControl,0.0,0.0,0.1,0.025118864315095794,1,0.5766551289998461
82,443,FarLowNarrow,0.1,0.15,0.2,0.012589254117941668,1,0.724067515002389
82,444,Constant,0.1,0.1,0.1,0.009999999999999995,1,0.3782202109978243
82,445,ThreeLinesControl,0.0,0.0,0.1,0.01995262314968879,1,0.5603588660014793
82,446,FarLowNarrow,0.1,0.15,0.2,0.009999999999999997,1,0.6924658940006339
82,447,FarLowNarrow,0.1,0.15,0.2,0.007943282347242812,1,0.842527634002181
82,448,Constant,0.1,0.1,0.1,0.00794328234724281,1,0.9446345430005749
82,449,FarLowWide,0.03,0.25,0.5,0.015848931924611127,1,0.8857197600009385
82,450,FarLowWide,0.03,0.25,0.5,0.012589254117941666,1,0.7318325730011566
82,451,FarHighNarrow,0.2,0.15,0.1,0.012589254117941668,1,1.1300852280000981
82,452,FarLowWide,0.03,0.25,0.5,0.009999999999999995,1,0.9363048049999634
82,453,FarHighWide,0.5,0.25,0.03,0.00398107170553497,0,0.6464971839995997
82,454,FarLowNarrow,0.1,0.15,0.2,0.006309573444801929,0,0.4767985030011914
82,455,FarHighWide,0.5,0.25,0.03,0.00501187233627272,0,0.499405119997391
82,456,Constant,0.1,0.1,0.1,0.0063095734448019285,0,0.5544679209997412
82,457,FarHighNarrow,0.2,0.15,0.1,0.009999999999999997,0,0.532068075001007
82,458,FarLowWide,0.03,0.25,0.5,0.00794328234724281,0,0.6110600359970704
82,459,ThreeLinesControl,0.0,0.0,0.1,0.015848931924611127,0,0.6883240089991887
82,460,Constant,0.1,0.1,0.1,0.00794328234724281,0,0.627386572999967
82,461,FarHighNarrow,0.2,0.15,0.1,0.012589254117941668,0,0.7133371870004339
82,462,FarHighWide,0.5,0.25,0.03,0.006309573444801929,0,0.6296871209997335
82,463,Constant_null,0.1,0.1,0.1,0.015848931924611127,1,0.6759121760005655
82,464,FarHighNarrow,0.2,0.15,0.1,0.01584893192461113,1,0.6901862070008065
82,465,FarHighNarrow,0.2,0.15,0.1,0.012589254117941668,0,0.640656614999898
82,466,ThreeLinesControl,0.0,0.0,0.1,0.01995262314968879,0,0.6464882899999793
82,467,ThreeLinesControl_null,0.0,0.0,0.1,0.031622776601683784,1,0.7165570369979832
82,468,FarLowWide,0.03,0.25,0.5,0.009999999999999995,0,0.7147123689974251
82,469,FarLowNarrow,0.1,0.15,0.2,0.007943282347242812,0,0.7939869830006501
82,470,Constant,0.1,0.1,0.1,0.009999999999999995,0,0.774267182998301
82,471,Constant,0.1,0.1,0.1,0.012589254117941666,1,0.7170561249986349
82,472,ThreeLinesControl,0.0,0.0,0.1,0.025118864315095794,1,0.7808221110026352
82,473,FarLowWide_null,0.03,0.25,0.5,0.015848931924611127,1,0.7435573729999305
82,474,ThreeLinesControl_null,0.0,0.0,0.1,0.02511886431509579,1,0.7013868909998564
82,475,FarHighNarrow,0.2,0.15,0.1,0.01584893192461113,1,0.506630898998992
82,476,FarHighNarrow,0.2,0.15,0.1,0.012589254117941668,0,0.5096167930023512
82,477,ThreeLinesControl,0.0,0.0,0.1,0.01995262314968879,0,0.43619358599971747
82,478,FarLowWide,0.03,0.25,0.5,0.012589254117941666,0,0.40998569799921825
82,479,ThreeLinesControl,0.0,0.0,0.1,0.025118864315095794,1,0.43146857299871044
82,480,Constant_null,0.1,0.1,0.1,0.012589254117941666,1,0.5595965489992523
82,481,FarLowWide,0.03,0.25,0.5,0.015848931924611127,0,0.34119511100288946
82,482,ThreeLinesControl,0.0,0.0,0.1,0.01995262314968879,1,0.370733633000782
82,483,FarLowWide,0.03,0.25,0.5,0.01995262314968879,1,0.3850094480003463
82,484,Constant,0.1,0.1,0.1,0.009999999999999995,0,0.3514206949985237
82,485,FarHighWide,0.5,0.25,0.03,0.007943282347242812,0,0.4452096610002627
82,486,FarLowNarrow_null,0.1,0.15,0.2,0.00794328234724281,1,0.4372392499972193
82,487,ThreeLinesControl,0.0,0.0,0.1,0.015848931924611127,1,0.459028479999688
82,488,FarLowNarrow,0.1,0.15,0.2,0.009999999999999997,0,0.7436486480000895
82,489,FarLowNarrow,0.1,0.15,0.2,0.012589254117941668,1,0.6128018380004505
82,490,FarHighNarrow,0.2,0.15,0.1,0.01584893192461113,0,0.5471871869995084
82,491,FarLowNarrow,0.1,0.15,0.2,0.009999999999999997,1,0.47811801499847206
82,492,FarHighNarrow,0.2,0.15,0.1,0.019952623149688792,1,0.4685486979979032
82,493,ThreeLinesControl,0.0,0.0,0.1,0.012589254117941666,0,0.43353535899950657
82,494,Constant,0.1,0.1,0.1,0.012589254117941666,1,0.4524930020015745
82,495,Constant,0.1,0.1,0.1,0.009999999999999995,0,0.49074368299989146
82,496,FarHighNarrow,0.2,0.15,0.1,0.01584893192461113,1,0.424899137000466
82,497,FarHighWide,0.5,0.25,0.03,0.009999999999999997,1,0.4062124509982823
82,498,FarHighNarrow,0.2,0.15,0.1,0.012589254117941668,1,0.6602905720028502
82,499,Constant,0.1,0.1,0.1,0.012589254117941666,1,0.7385406639987195
82,500,ThreeLinesControl,0.0,0.0,0.1,0.015848931924611127,1,0.840345136999531
82,501,FarHighWide,0.5,0.25,0.03,0.007943282347242812,0,0.8465900750015862
82,502,FarHighWide,0.5,0.25,0.03,0.009999999999999997,0,0.820881993000512
82,503,ThreeLinesControl,0.0,0.0,0.1,0.012589254117941666,0,0.7316868289999547
82,504,FarHighWide,0.5,0.25,0.03,0.012589254117941668,0,0.762354623999272
82,505,FarLowWide,0.03,0.25,0.5,0.015848931924611127,0,0.7981876829981047
82,506,ThreeLinesControl,0.0,0.0,0.1,0.015848931924611127,1,0.7003445989976171
82,507,FarHighNarrow,0.2,0.15,0.1,0.009999999999999997,0,0.7146435020003992
82,508,FarLowWide,0.03,0.25,0.5,0.01995262314968879,0,0.709771367997746
82,509,ThreeLinesControl,0.0,0.0,0.1,0.012589254117941666,0,0.7159479389993066
82,510,FarHighWide,0.5,0.25,0.03,0.01584893192461113,1,0.6950744499990833
82,511,ThreeLinesControl,0.0,0.0,0.1,0.015848931924611127,1,0.597273879997374
82,512,FarHighWide_null,0.5,0.25,0.03,0.06309573444801932,1,0.635238617000141
82,513,Constant,0.1,0.1,0.1,0.009999999999999995,0,0.6635021479996794
82,514,ThreeLinesControl,0.0,0.0,0.1,0.012589254117941666,0,0.6937012980015425
82,515,FarHighWide,0.5,0.25,0.03,0.012589254117941668,0,0.731801694000751
82,516,Constant,0.1,0.1,0.1,0.012589254117941666,0,1.0409335469994403
82,517,FarHighWide,0.5,0.25,0.03,0.01584893192461113,1,0.8792440809993423
82,518,FarLowWide,0.03,0.25,0.5,0.025118864315095794,1,0.7025046779999684
82,519,FarHighNarrow,0.2,0.15,0.1,0.012589254117941668,1,0.6208185649993538
82,520,FarHighNarrow,0.2,0.15,0.1,0.009999999999999997,0,0.6669215959991561
82,521,ThreeLinesControl,0.0,0.0,0.1,0.015848931924611127,1,0.5185248340021644
82,522,FarHighNarrow,0.2,0.15,0.1,0.012589254117941668,1,0.6284621159975359
82,523,Constant,0.1,0.1,0.1,0.015848931924611127,1,0.39505352299966034
82,524,FarHighWide,0.5,0.25,0.03,0.012589254117941668,1,0.6381149539993203
82,525,FarLowNarrow,0.1,0.15,0.2,0.007943282347242812,0,0.6843203120006365
82,526,ThreeLinesControl_null,0.0,0.0,0.1,0.01995262314968879,1,0.6098541439969267
82,527,FarLowWide,0.03,0.25,0.5,0.01995262314968879,1,0.45357181600047625
82,528,Constant,0.1,0.1,0.1,0.012589254117941666,1,0.5557127840002067
82,529,Constant,0.1,0.1,0.1,0.009999999999999995,0,0.6890417530012201
82,530,ThreeLinesControl_null,0.0,0.0,0.1,0.015848931924611127,1,0.5110111360008887
82,531,FarLowWide,0.03,0.25,0.5,0.015848931924611127,0,0.6932023160006793
82,532,FarHighNarrow,0.2,0.15,0.1,0.009999999999999997,1,0.6263671220003744
82,533,ThreeLinesControl,0.0,0.0,0.1,0.012589254117941666,0,0.5683549420027703
82,534,ThreeLinesControl,0.0,0.0,0.1,0.015848931924611127,0,0.6467704710012185
82,535,ThreeLinesControl,0.0,0.0,0.1,0.01995262314968879,1,0.5498196799999278
82,536,FarLowWide,0.03,0.25,0.5,0.01995262314968879,0,0.4843014670004777
82,537,ThreeLinesControl,0.0,0.0,0.1,0.015848931924611127,0,0.5713623339979677
82,538,FarHighWide,0.5,0.25,0.03,0.009999999999999997,1,0.4461050419995445
82,539,Constant,0.1,0.1,0.1,0.012589254117941666,1,0.6279905360024713
82,540,FarHighWide,0.5,0.25,0.03,0.007943282347242812,1,0.6564454389990715
82,541,Constant,0.1,0.1,0.1,0.009999999999999995,0,0.7816711890009174
82,542,ThreeLinesControl,0.0,0.0,0.1,0.01995262314968879,1,0.707751437999832
82,543,FarHighWide,0.5,0.25,0.03,0.006309573444801929,0,0.9667458530020667
82,544,FarLowNarrow,0.1,0.15,0.2,0.009999999999999997,0,0.971911855001963
82,545,ThreeLinesControl,0.0,0.0,0.1,0.015848931924611127,1,0.922175530999084
82,546,ThreeLinesControl,0.0,0.0,0.1,0.012589254117941666,0,0.5923643479982275
82,547,Constant,0.1,0.1,0.1,0.012589254117941666,0,0.5425842639997427
82,548,ThreeLinesControl,0.0,0.0,0.1,0.015848931924611127,0,0.47685103500043624
82,549,FarHighNarrow,0.2,0.15,0.1,0.007943282347242812,1,0.3620908420016349
82,550,FarHighWide,0.5,0.25,0.03,0.007943282347242812,0,0.7681020880008873
82,551,FarLowNarrow,0.1,0.15,0.2,0.012589254117941668,1,0.6305314269993687
82,552,FarHighWide,0.5,0.25,0.03,0.009999999999999997,0,0.4378907619975507
82,553,FarLowNarrow,0.1,0.15,0.2,0.009999999999999997,0,0.3877039020007942
82,554,ThreeLinesControl,0.0,0.0,0.1,0.01995262314968879,1,0.4393000050004048
82,555,FarHighNarrow,0.2,0.15,0.1,0.006309573444801929,1,0.7178185829980066
82,556,FarLowNarrow,0.1,0.15,0.2,0.012589254117941668,0,0.5687732939986745
82,557,ThreeLinesControl,0.0,0.0,0.1,0.015848931924611127,1,0.479227116000402
82,558,FarLowNarrow,0.1,0.15,0.2,0.01584893192461113,1,0.6131774989989935
82,559,FarHighWide,0.5,0.25,0.03,0.012589254117941668,0,0.6482523579979897
82,560,FarHighNarrow,0.2,0.15,0.1,0.00501187233627272,1,0.4625119480006106
82,561,ThreeLinesControl_null,0.0,0.0,0.1,0.012589254117941666,1,0.4675074289989425
82,562,FarHighNarrow,0.2,0.15,0.1,0.00398107170553497,0,0.585492290003458
82,563,FarLowNarrow_null,0.1,0.15,0.2,0.0063095734448019285,1,0.7197426659986377
82,564,FarHighWide,0.5,0.25,0.03,0.01584893192461113,1,0.7499042279996502
82,565,FarHighWide,0.5,0.25,0.03,0.012589254117941668,0,0.9083275529992534
82,566,ThreeLinesControl,0.0,0.0,0.1,0.012589254117941666,0,0.7945948390006379
82,567,ThreeLinesControl,0.0,0.0,0.1,0.015848931924611127,0,0.6648462320008548
82,568,FarLowWide,0.03,0.25,0.5,0.025118864315095794,1,0.6551010090006457
82,569,FarHighNarrow,0.2,0.15,0.1,0.00501187233627272,0,0.6299485700001242
82,570,FarHighNarrow,0.2,0.15,0.1,0.006309573444801929,0,0.4260752970003523
82,571,ThreeLinesControl,0.0,0.0,0.1,0.01995262314968879,1,0.6710779200002435
82,572,FarHighWide,0.5,0.25,0.03,0.01584893192461113,1,0.7809996549985954
82,573,FarLowWide,0.03,0.25,0.5,0.01995262314968879,0,0.6565400770014094
82,574,FarHighNarrow,0.2,0.15,0.1,0.007943282347242812,1,0.6705551779996313
82,575,FarHighNarrow,0.2,0.15,0.1,0.006309573444801929,1,0.7298229250009172
82,576,FarLowWide,0.03,0.25,0.5,0.025118864315095794,1,0.735521824000898
82,577,FarLowNarrow,0.1,0.15,0.2,0.012589254117941668,1,0.7739519610004209
82,578,Constant,0.1,0.1,0.1,0.015848931924611127,1,0.9081708129997423
82,579,FarHighWide,0.5,0.25,0.03,0.012589254117941668,0,0.8422528720002447
82,580,Constant,0.1,0.1,0.1,0.012589254117941666,0,0.8166638590009825
82,581,FarHighNarrow,0.2,0.15,0.1,0.00501187233627272,1,0.6699713499983773
82,582,FarHighNarrow,0.2,0.15,0.1,0.00398107170553497,0,0.7083569430033094
82,583,FarLowWide,0.03,0.25,0.5,0.01995262314968879,0,0.5942251240012411
82,584,FarHighNarrow,0.2,0.15,0.1,0.00501187233627272,0,0.6571981109991611
82,585,Constant,0.1,0.1,0.1,0.015848931924611127,1,0.7122942489986599
82,586,FarHighNarrow,0.2,0.15,0.1,0.006309573444801929,0,0.627279128999362
82,587,FarHighWide,0.5,0.25,0.03,0.01584893192461113,0,0.6734587419996387
82,588,FarHighNarrow,0.2,0.15,0.1,0.007943282347242812,0,0.5916876539995428
82,589,FarLowWide,0.03,0.25,0.5,0.025118864315095794,0,0.5709160789992893
82,590,FarHighWide,0.5,0.25,0.03,0.019952623149688792,0,0.46373066599699087
82,591,FarHighWide,0.5,0.25,0.03,0.025118864315095798,1,0.5029961250002088
82,592,FarLowNarrow,0.1,0.15,0.2,0.009999999999999997,1,0.7143055229971651
82,593,ThreeLinesControl,0.0,0.0,0.1,0.015848931924611127,1,0.5444486489977862
82,594,Constant_null,0.1,0.1,0.1,0.009999999999999995,1,0.534694532998401
82,595,Constant,0.1,0.1,0.1,0.012589254117941666,0,0.3887628029988264
82,596,ThreeLinesControl,0.0,0.0,0.1,0.012589254117941666,0,0.5137723940024443
82,597,FarLowNarrow_null,0.1,0.15,0.2,0.005011872336272719,1,0.6557042880012887
82,598,FarHighNarrow,0.2,0.15,0.1,0.009999999999999997,0,0.6063043489994016
82,599,FarHighWide,0.5,0.25,0.03,0.019952623149688792,0,0.659705149999354
82,600,FarLowWide,0.03,0.25,0.5,0.031622776601683784,0,0.4071510479989229
82,601,Constant,0.1,0.1,0.1,0.015848931924611127,1,0.39062039500277024
82,602,FarHighNarrow,0.2,0.15,0.1,0.012589254117941668,0,0.370984656001383
82,603,ThreeLinesControl,0.0,0.0,0.1,0.015848931924611127,1,0.383648662998894
82,604,FarLowNarrow,0.1,0.15,0.2,0.007943282347242812,0,0.3662756419980724
82,605,ThreeLinesControl,0.0,0.0,0.1,0.012589254117941666,0,0.22948588199869846
82,606,FarHighNarrow,0.2,0.15,0.1,0.01584893192461113,0,0.18850317199758138
82,607,ThreeLinesControl,0.0,0.0,0.1,0.015848931924611127,1,0.2871712770029262
82,608,FarHighWide,0.5,0.25,0.03,0.025118864315095798,1,0.24411467599929892
82,609,FarHighWide,0.5,0.25,0.03,0.019952623149688792,1,0.1603634780003631
82,610,FarHighNarrow,0.2,0.15,0.1,0.019952623149688792,1,0.28569347899974673
82,611,Constant,0.1,0.1,0.1,0.012589254117941666,1,0.2519839340020553
82,612,FarLowWide,0.03,0.25,0.5,0.03981071705534971,1,0.23988110099890037
82,613,Constant,0.1,0.1,0.1,0.009999999999999995,0,0.4461564000012004
82,614,ThreeLinesControl,0.0,0.0,0.1,0.012589254117941666,0,0.5323621700008516
82,615,FarHighNarrow,0.2,0.15,0.1,0.01584893192461113,1,0.5062615320020996
82,616,FarHighNarrow,0.2,0.15,0.1,0.012589254117941668,0,0.32074607699905755
82,617,Constant,0.1,0.1,0.1,0.012589254117941666,1,0.5097236589972454
82,618,FarLowWide,0.03,0.25,0.5,0.031622776601683784,1,0.43595811600243906
82,619,FarLowWide,0.03,0.25,0.5,0.02511886431509579,1,0.3379771090003487
82,620,FarHighWide,0.5,0.25,0.03,0.01584893192461113,1,0.5686847050019423
82,621,Constant,0.1,0.1,0.1,0.009999999999999995,0,0.6141313209991495
82,622,ThreeLinesControl,0.0,0.0,0.1,0.015848931924611127,0,0.5801844919988071
82,623,Constant,0.1,0.1,0.1,0.012589254117941666,0,0.631696839001961
82,624,Constant,0.1,0.1,0.1,0.015848931924611127,0,0.49351210199893103
82,625,FarHighNarrow,0.2,0.15,0.1,0.01584893192461113,1,0.6601370770003996
82,626,FarLowWide,0.03,0.25,0.5,0.01995262314968879,0,0.7590485979999357
82,627,Constant,0.1,0.1,0.1,0.01995262314968879,1,0.5571737970021786
82,628,FarLowNarrow,0.1,0.15,0.2,0.009999999999999997,0,0.4732809579982131
82,629,ThreeLinesControl,0.0,0.0,0.1,0.01995262314968879,0,0.711542589997407
82,630,Constant,0.1,0.1,0.1,0.015848931924611127,1,0.645600284999091
82,631,FarLowNarrow,0.1,0.15,0.2,0.012589254117941668,0,0.6679112460005854
82,632,ThreeLinesControl,0.0,0.0,0.1,0.025118864315095794,1,0.6970872870006133
82,633,FarHighWide,0.5,0.25,0.03,0.012589254117941668,0,0.7921768830019573
82,634,Constant,0.1,0.1,0.1,0.012589254117941666,1,0.8006780239993532
82,635,ThreeLinesControl,0.0,0.0,0.1,0.01995262314968879,1,0.7890135289999307
82,636,FarLowNarrow,0.1,0.15,0.2,0.01584893192461113,1,0.8357012779997604
82,637,FarHighNarrow,0.2,0.15,0.1,0.012589254117941668,0,0.7528332530018815
82,638,FarLowWide,0.03,0.25,0.5,0.025118864315095794,1,0.7188685830005852
82,639,FarLowWide,0.03,0.25,0.5,0.01995262314968879,1,0.874087176998728
82,640,FarHighWide,0.5,0.25,0.03,0.01584893192461113,1,0.6712315269978717
82,641,FarLowNarrow,0.1,0.15,0.2,0.012589254117941668,1,0.7102884829982941
82,642,FarLowNarrow,0.1,0.15,0.2,0.009999999999999997,0,0.5933734820027894
82,643,FarHighWide,0.5,0.25,0.03,0.012589254117941668,0,0.7746802980000211
82,644,FarLowWide,0.03,0.25,0.5,0.015848931924611127,1,0.636615413997788
82,645,FarLowWide,0.03,0.25,0.5,0.012589254117941666,0,0.5139852100001008
82,646,ThreeLinesControl,0.0,0.0,0.1,0.015848931924611127,1,0.4471579319979355
82,647,FarHighWide,0.5,0.25,0.03,0.01584893192461113,1,0.349071646000084
82,648,FarLowWide,0.03,0.25,0.5,0.015848931924611127,1,0.6034269379997568
82,649,FarLowNarrow,0.1,0.15,0.2,0.012589254117941668,0,0.6892775429987523
82,650,ThreeLinesControl,0.0,0.0,0.1,0.012589254117941666,1,0.5287443170018378
82,651,FarHighNarrow,0.2,0.15,0.1,0.01584893192461113,1,0.7121812519981177
82,652,FarHighWide,0.5,0.25,0.03,0.012589254117941668,1,0.8141240889999608
82,653,Constant,0.1,0.1,0.1,0.009999999999999995,1,0.8178646639971703
82,654,FarHighWide,0.5,0.25,0.03,0.009999999999999997,1,0.6723832630013931
82,655,FarLowNarrow,0.1,0.15,0.2,0.01584893192461113,1,0.7555456730005972
82,656,FarHighWide,0.5,0.25,0.03,0.007943282347242812,1,0.7217225799977314
82,657,FarLowNarrow,0.1,0.15,0.2,0.012589254117941668,0,0.8396049430011772
82,658,FarLowNarrow,0.1,0.15,0.2,0.01584893192461113,1,0.641135228001076
82,659,FarHighWide,0.5,0.25,0.03,0.006309573444801929,0,0.7189963919990987
82,660,FarHighNarrow,0.2,0.15,0.1,0.012589254117941668,0,0.7488937669986626
82,661,Constant,0.1,0.1,0.1,0.00794328234724281,0,0.7372975469988887
82,662,FarLowNarrow,0.1,0.15,0.2,0.012589254117941668,0,0.8234235310010263
82,663,FarLowNarrow,0.1,0.15,0.2,0.01584893192461113,0,0.6456632790032018
82,664,FarHighNarrow,0.2,0.15,0.1,0.01584893192461113,0,0.7478397640006733
82,665,FarLowNarrow,0.1,0.15,0.2,0.019952623149688792,0,0.730011038001976
82,666,Constant,0.1,0.1,0.1,0.009999999999999995,0,1.232023611999466
82,667,ThreeLinesControl,0.0,0.0,0.1,0.009999999999999995,0,0.5835294450007495
82,668,FarLowNarrow_null,0.1,0.15,0.2,0.00398107170553497,1,0.3173822000026121
82,669,FarLowWide,0.03,0.25,0.5,0.012589254117941666,0,0.19352871399678406
82,670,ThreeLinesControl,0.0,0.0,0.1,0.012589254117941666,1,0.6956171050005651
82,671,ThreeLinesControl,0.0,0.0,0.1,0.009999999999999995,0,0.5737570059973223
82,672,FarLowNarrow,0.1,0.15,0.2,0.025118864315095798,1,0.5607755040000484
82,673,FarHighWide,0.5,0.25,0.03,0.007943282347242812,1,0.5431219469974167
82,674,FarHighWide_null,0.5,0.25,0.03,0.05011872336272722,1,0.5222171860004892
82,675,FarHighWide,0.5,0.25,0.03,0.006309573444801929,0,0.7271318509992852
82,676,FarHighNarrow,0.2,0.15,0.1,0.019952623149688792,1,0.5733834419988852
82,677,FarHighWide,0.5,0.25,0.03,0.007943282347242812,0,0.4666494090015476
82,678,Constant,0.1,0.1,0.1,0.012589254117941666,1,0.5448299079980643
82,679,FarHighNarrow,0.2,0.15,0.1,0.01584893192461113,1,0.6148479740004404
82,680,FarHighWide,0.5,0.25,0.03,0.009999999999999997,1,0.725230231997557
82,681,FarHighNarrow,0.2,0.15,0.1,0.012589254117941668,1,0.5952401210015523
82,682,FarLowNarrow,0.1,0.15,0.2,0.019952623149688792,0,0.6578826470031345
82,683,Constant,0.1,0.1,0.1,0.009999999999999995,0,0.46501965100105735
82,684,FarHighWide,0.5,0.25,0.03,0.007943282347242812,0,0.6059334210003726
82,685,FarLowWide,0.03,0.25,0.5,0.015848931924611127,1,0.6269354630021553
82,686,FarHighNarrow,0.2,0.15,0.1,0.009999999999999997,0,0.5290849369994248
82,687,FarLowWide,0.03,0.25,0.5,0.012589254117941666,0,0.4222292800004652
82,688,Constant,0.1,0.1,0.1,0.012589254117941666,1,0.4734843389996968
82,689,ThreeLinesControl,0.0,0.0,0.1,0.012589254117941666,0,0.5355061010013742
82,690,FarLowWide,0.03,0.25,0.5,0.015848931924611127,0,0.6454611620029027
82,691,Constant,0.1,0.1,0.1,0.009999999999999995,0,0.4889835210015008
82,692,FarHighWide,0.5,0.25,0.03,0.009999999999999997,0,0.6229042199993273
82,693,Constant,0.1,0.1,0.1,0.012589254117941666,0,0.5961348009986978
82,694,ThreeLinesControl_null,0.0,0.0,0.1,0.009999999999999995,1,0.5620508139982121
82,695,FarHighWide,0.5,0.25,0.03,0.012589254117941668,0,0.5442913109982328
82,696,ThreeLinesControl,0.0,0.0,0.1,0.015848931924611127,0,0.4864891209981579
82,697,ThreeLinesControl,0.0,0.0,0.1,0.01995262314968879,0,0.5966787139986991
82,698,FarHighWide,0.5,0.25,0.03,0.01584893192461113,0,0.7220132580005156
82,699,Constant,0.1,0.1,0.1,0.015848931924611127,1,0.609273423000559
82,700,FarLowNarrow,0.1,0.15,0.2,0.025118864315095798,1,0.5681386430005659
82,701,FarLowWide,0.03,0.25,0.5,0.01995262314968879,1,0.6064590250025503
82,702,ThreeLinesControl,0.0,0.0,0.1,0.025118864315095794,1,0.5954112809995422
82,703,FarLowNarrow_null,0.1,0.15,0.2,0.0031622776601683772,1,0.7044366480004101
82,704,ThreeLinesControl,0.0,0.0,0.1,0.01995262314968879,1,0.644277099003375
82,705,Constant,0.1,0.1,0.1,0.012589254117941666,0,0.6814786060022016
82,706,Constant,0.1,0.1,0.1,0.015848931924611127,1,0.8554285829995933
82,707,FarHighWide,0.5,0.25,0.03,0.019952623149688792,1,0.8352865250017203
82,708,Constant,0.1,0.1,0.1,0.012589254117941666,1,0.7533124010005849
82,709,Constant,0.1,0.1,0.1,0.009999999999999995,1,0.8153753030019288
82,710,FarHighNarrow,0.2,0.15,0.1,0.012589254117941668,1,0.9083269969996763
82,711,FarLowNarrow,0.1,0.15,0.2,0.019952623149688792,1,1.0429447329988761
82,712,Constant_null,0.1,0.1,0.1,0.00794328234724281,1,0.6569960970009561
82,713,FarLowNarrow,0.1,0.15,0.2,0.01584893192461113,1,0.6391828560008435
82,714,FarHighNarrow,0.2,0.15,0.1,0.009999999999999997,1,0.7170642359997146
82,715,FarLowWide,0.03,0.25,0.5,0.015848931924611127,0,0.47377303400207893
82,716,Constant_null,0.1,0.1,0.1,0.0063095734448019285,1,0.5210625230029109
82,717,FarHighNarrow,0.2,0.15,0.1,0.007943282347242812,1,0.6158134669967694
82,718,Constant,0.1,0.1,0.1,0.00794328234724281,0,0.48271820100126206
82,719,Constant,0.1,0.1,0.1,0.009999999999999995,0,0.32113003699851106
82,720,FarHighWide,0.5,0.25,0.03,0.01584893192461113,1,0.6433761640000739
82,721,Constant,0.1,0.1,0.1,0.012589254117941666,0,0.36239119400124764
82,722,FarHighWide,0.5,0.25,0.03,0.012589254117941668,0,0.30925061700327205
82,723,FarLowNarrow,0.1,0.15,0.2,0.012589254117941668,0,0.5232496950011409
82,724,Constant,0.1,0.1,0.1,0.015848931924611127,1,0.43871039599980577
82,725,Constant,0.1,0.1,0.1,0.012589254117941666,0,0.7078591460012831
82,726,FarLowWide,0.03,0.25,0.5,0.01995262314968879,0,0.6907861389991012
82,727,FarLowNarrow,0.1,0.15,0.2,0.01584893192461113,1,0.4380152250014362
82,728,FarHighWide,0.5,0.25,0.03,0.01584893192461113,1,0.3790861919987947
82,729,FarHighNarrow,0.2,0.15,0.1,0.006309573444801929,0,0.5768910379993031
82,730,ThreeLinesControl,0.0,0.0,0.1,0.015848931924611127,1,0.44738269799927366
82,731,FarHighNarrow,0.2,0.15,0.1,0.007943282347242812,0,0.3735011270000541
82,732,ThreeLinesControl,0.0,0.0,0.1,0.012589254117941666,1,0.43575691799924243
82,733,Constant,0.1,0.1,0.1,0.015848931924611127,1,0.5299579679995077
82,734,FarLowNarrow,0.1,0.15,0.2,0.012589254117941668,0,0.4800741779981763
82,735,Constant_null,0.1,0.1,0.1,0.005011872336272719,1,0.5023350379997282
82,736,FarHighNarrow,0.2,0.15,0.1,0.009999999999999997,0,0.596740258999489
82,737,FarLowWide,0.03,0.25,0.5,0.025118864315095794,1,0.38801747799880104
82,738,FarHighWide,0.5,0.25,0.03,0.012589254117941668,0,0.4384749259988894
82,739,Constant,0.1,0.1,0.1,0.012589254117941666,0,0.4047672650012828
82,740,FarLowNarrow,0.1,0.15,0.2,0.01584893192461113,1,0.47484710899880156
82,741,FarHighWide,0.5,0.25,0.03,0.01584893192461113,1,0.6939878769990173
82,742,FarLowNarrow,0.1,0.15,0.2,0.012589254117941668,0,0.6601953289973608
82,743,FarHighNarrow_null,0.2,0.15,0.1,0.012589254117941666,1,0.5111703720031073
82,744,Constant,0.1,0.1,0.1,0.015848931924611127,1,0.4214832639991073
82,745,ThreeLinesControl,0.0,0.0,0.1,0.009999999999999995,0,0.6918635300025926
82,746,Constant,0.1,0.1,0.1,0.012589254117941666,0,0.3697268609976163
82,747,FarLowNarrow,0.1,0.15,0.2,0.01584893192461113,1,0.6789555600007589
82,748,FarLowNarrow,0.1,0.15,0.2,0.012589254117941668,0,0.5980296400011866
82,749,ThreeLinesControl,0.0,0.0,0.1,0.012589254117941666,0,0.5951372829986212
82,750,FarLowNarrow_null,0.1,0.15,0.2,0.002511886431509578,1,0.4494070210021164
82,751,ThreeLinesControl,0.0,0.0,0.1,0.015848931924611127,1,0.6554586610000115
82,752,FarLowWide,0.03,0.25,0.5,0.01995262314968879,0,0.4143325610020838
82,753,FarHighNarrow_null,0.2,0.15,0.1,0.009999999999999995,1,0.5889757680015464
82,754,FarLowNarrow,0.1,0.15,0.2,0.01584893192461113,0,0.6560283309991064
82,755,Constant,0.1,0.1,0.1,0.015848931924611127,1,0.5341223159994115
82,756,Constant,0.1,0.1,0.1,0.012589254117941666,1,0.6763545440007874
82,757,ThreeLinesControl,0.0,0.0,0.1,0.012589254117941666,0,0.5835109860017837
82,758,ThreeLinesControl,0.0,0.0,0.1,0.015848931924611127,1,0.517646373999014
82,759,Constant,0.1,0.1,0.1,0.009999999999999995,0,0.6347076589991048
82,760,ThreeLinesControl,0.0,0.0,0.1,0.012589254117941666,0,0.5669688359994325
82,761,FarLowWide,0.03,0.25,0.5,0.025118864315095794,1,0.5887421500010532
82,762,FarLowNarrow,0.1,0.15,0.2,0.019952623149688792,1,0.5951916199992411
82,763,FarHighNarrow,0.2,0.15,0.1,0.012589254117941668,1,0.6813780379998207
82,764,Constant,0.1,0.1,0.1,0.012589254117941666,0,99
82,765,FarHighWide,0.5,0.25,0.03,0.012589254117941668,0,0.6684698760000174
82,766,ThreeLinesControl,0.0,0.0,0.1,0.015848931924611127,1,0.8027686889981851
82,767,FarHighWide,0.5,0.25,0.03,0.01584893192461113,0,0.769158752002113
82,768,ThreeLinesControl,0.0,0.0,0.1,0.012589254117941666,1,0.7756038189982064
82,769,ThreeLinesControl,0.0,0.0,0.1,0.009999999999999995,0,0.7341669520028518
82,770,FarHighNarrow,0.2,0.15,0.1,0.009999999999999997,0,0.5808074269989447
82,771,Constant_null,0.1,0.1,0.1,0.00398107170553497,1,0.7033412489981856
82,772,Constant,0.1,0.1,0.1,0.015848931924611127,1,0.5647766620022594
82,773,FarHighWide,0.5,0.25,0.03,0.019952623149688792,1,0.6399758300030953
82,774,FarLowWide,0.03,0.25,0.5,0.01995262314968879,1,0.7980817489988112
82,775,FarLowNarrow,0.1,0.15,0.2,0.01584893192461113,0,99
82,776,FarLowNarrow,0.1,0.15,0.2,0.019952623149688792,1,0.6790426599982311
82,777,FarLowWide,0.03,0.25,0.5,0.015848931924611127,1,0.5973524750006618
82,778,FarHighWide,0.5,0.25,0.03,0.01584893192461113,1,0.5954961629977333
82,779,Constant,0.1,0.1,0.1,0.012589254117941666,0,0.6096600210003089
82,780,FarLowWide,0.03,0.25,0.5,0.012589254117941666,0,0.7359883309982251
82,781,FarLowNarrow,0.1,0.15,0.2,0.01584893192461113,0,1.0689807180024218
82,782,FarHighNarrow,0.2,0.15,0.1,0.012589254117941668,1,1.1310903939993295
82,783,FarLowWide,0.03,0.25,0.5,0.015848931924611127,0,0.8014644649992988
82,784,FarHighWide,0.5,0.25,0.03,0.012589254117941668,0,0.6242791740005487
82,785,FarLowNarrow,0.1,0.15,0.2,0.019952623149688792,0,0.7190629549986625
82,786,FarHighNarrow,0.2,0.15,0.1,0.009999999999999997,0,99
82,787,FarHighNarrow,0.2,0.15,0.1,0.012589254117941668,1,0.4480940519970318
82,788,FarHighWide_null,0.5,0.25,0.03,0.03981071705534971,1,0.5420649760017113
82,789,ThreeLinesControl,0.0,0.0,0.1,0.012589254117941666,0,0.5360495610002545
82,790,FarLowNarrow,0.1,0.15,0.2,0.025118864315095798,0,0.7190947750023042
82,791,FarLowWide,0.03,0.25,0.5,0.01995262314968879,0,0.6606101430006674
82,792,FarLowNarrow,0.1,0.15,0.2,0.03162277660168379,0,99
82,793,FarHighNarrow,0.2,0.15,0.1,0.009999999999999997,0,0.4945346940003219
82,794,FarLowNarrow,0.1,0.15,0.2,0.03981071705534973,1,0.6449450079999224
82,795,ThreeLinesControl,0.0,0.0,0.1,0.015848931924611127,0,0.4511627350002527
82,796,FarLowNarrow,0.1,0.15,0.2,0.03162277660168379,1,0.44928061999962665
82,797,FarHighWide,0.5,0.25,0.03,0.01584893192461113,1,0.5753790759990807
82,798,Constant,0.1,0.1,0.1,0.015848931924611127,1,0.756679696001811
82,799,ThreeLinesControl_null,0.0,0.0,0.1,0.00794328234724281,1,0.6106490029997076
82,800,FarLowWide,0.03,0.25,0.5,0.025118864315095794,1,0.7838029569975333
82,801,Constant,0.1,0.1,0.1,0.012589254117941666,0,0.4714504900002794
82,802,FarHighNarrow,0.2,0.15,0.1,0.012589254117941668,0,0.4370796950024669
82,803,ThreeLinesControl,0.0,0.0,0.1,0.01995262314968879,1,0.49649487499846146
82,804,FarHighWide,0.5,0.25,0.03,0.012589254117941668,0,0.39837160399838467
82,805,FarLowWide,0.03,0.25,0.5,0.01995262314968879,1,0.595804036998743
82,806,FarLowWide,0.03,0.25,0.5,0.015848931924611127,1,0.47874198899808107
82,807,FarLowWide,0.03,0.25,0.5,0.012589254117941666,1,0.44474127600187785
82,808,Constant,0.1,0.1,0.1,0.015848931924611127,1,0.4419796910005971
82,809,FarLowWide,0.03,0.25,0.5,0.009999999999999995,0,0.4949476989968389
82,810,Constant_null,0.1,0.1,0.1,0.0031622776601683772,1,0.4130003669997677
82,811,ThreeLinesControl,0.0,0.0,0.1,0.015848931924611127,1,0.611628271999507
82,812,FarHighWide,0.5,0.25,0.03,0.01584893192461113,1,0.7296218980009144
82,813,FarHighNarrow,0.2,0.15,0.1,0.01584893192461113,0,99
82,814,FarLowWide,0.03,0.25,0.5,0.012589254117941666,0,0.6059427810032503
82,815,FarHighNarrow,0.2,0.15,0.1,0.019952623149688792,1,0.5812709019992326
82,816,FarHighWide,0.5,0.25,0.03,0.012589254117941668,1,0.45309029900090536
82,817,FarLowNarrow,0.1,0.15,0.2,0.025118864315095798,1,0.5365974470005312
82,818,ThreeLinesControl_null,0.0,0.0,0.1,0.0063095734448019285,1,0.5617763020018174
82,819,ThreeLinesControl,0.0,0.0,0.1,0.012589254117941666,1,0.6357576539994625
82,820,ThreeLinesControl_null,0.0,0.0,0.1,0.005011872336272719,1,0.5617712829989614
82,821,FarHighWide,0.5,0.25,0.03,0.009999999999999997,0,0.5040289210010087
82,822,Constant,0.1,0.1,0.1,0.012589254117941666,1,0.4431009189975157
82,823,FarHighNarrow,0.2,0.15,0.1,0.01584893192461113,1,0.5533261639975535
82,824,FarHighNarrow,0.2,0.15,0.1,0.012589254117941668,0,0.5515351489993918
82,825,ThreeLinesControl,0.0,0.0,0.1,0.009999999999999995,1,0.5956807299990032
82,826,ThreeLinesControl,0.0,0.0,0.1,0.00794328234724281,0,0.5777763280020736
82,827,FarLowWide,0.03,0.25,0.5,0.015848931924611127,0,0.5839303659995494
82,828,FarHighNarrow,0.2,0.15,0.1,0.01584893192461113,1,0.5329870749992551
82,829,FarLowWide_null,0.03,0.25,0.5,0.012589254117941666,1,0.507243390999065
82,830,FarHighWide,0.5,0.25,0.03,0.012589254117941668,1,0.5855141899992304
82,831,FarHighNarrow_null,0.2,0.15,0.1,0.00794328234724281,1,0.5128376130014658
82,832,Constant_null,0.1,0.1,0.1,0.002511886431509578,1,0.5825414979990455
82,833,ThreeLinesControl,0.0,0.0,0.1,0.009999999999999995,0,0.3065699609978765
82,834,Constant,0.1,0.1,0.1,0.009999999999999995,0,0.2967337900008715
82,835,Constant,0.1,0.1,0.1,0.012589254117941666,1,0.5555827420030255
82,836,FarLowNarrow,0.1,0.15,0.2,0.019952623149688792,1,0.45022018199961167
82,837,FarHighNarrow,0.2,0.15,0.1,0.012589254117941668,0,0.4723775200000091
82,838,ThreeLinesControl_null,0.0,0.0,0.1,0.00398107170553497,1,0.5954578119999496
82,839,FarHighWide,0.5,0.25,0.03,0.009999999999999997,1,0.6099057800020091
82,840,FarLowNarrow,0.1,0.15,0.2,0.01584893192461113,0,0.442630415000167
82,841,Constant,0.1,0.1,0.1,0.009999999999999995,1,0.4857791860013094
82,842,ThreeLinesControl,0.0,0.0,0.1,0.012589254117941666,0,0.3481434409986832
82,843,FarLowNarrow_null,0.1,0.15,0.2,0.001995262314968878,1,0.2580297470012738
82,844,FarHighNarrow,0.2,0.15,0.1,0.01584893192461113,0,0.32728722499814467
82,845,FarLowWide,0.03,0.25,0.5,0.01995262314968879,1,0.5093972430004214
82,846,FarLowNarrow,0.1,0.15,0.2,0.019952623149688792,1,0.435742614998162
82,847,FarLowWide,0.03,0.25,0.5,0.015848931924611127,1,0.3618350050019217
82,848,FarHighWide,0.5,0.25,0.03,0.007943282347242812,0,0.408038174999092
82,849,FarLowWide,0.03,0.25,0.5,0.012589254117941666,0,0.350125079999998
82,850,Constant,0.1,0.1,0.1,0.00794328234724281,0,0.6523534389998531
82,851,ThreeLinesControl,0.0,0.0,0.1,0.015848931924611127,0,0.43437882200305467
82,852,FarHighWide,0.5,0.25,0.03,0.009999999999999997,0,0.7035263430007035
82,853,Constant,0.1,0.1,0.1,0.009999999999999995,0,0.6687711329977901
82,854,Constant,0.1,0.1,0.1,0.012589254117941666,0,0.6267557299979671
82,855,FarHighWide,0.5,0.25,0.03,0.012589254117941668,0,0.5499468390007678
82,856,FarLowWide,0.03,0.25,0.5,0.015848931924611127,1,0.49197037200065097
82,857,FarLowNarrow,0.1,0.15,0.2,0.01584893192461113,1,0.5509846460008703
82,858,Constant,0.1,0.1,0.1,0.015848931924611127,1,0.5414393090031808
82,859,Constant,0.1,0.1,0.1,0.012589254117941666,1,0.7396643599968229
82,860,Constant_null,0.1,0.1,0.1,0.001995262314968878,1,0.6727262790009263
82,861,ThreeLinesControl,0.0,0.0,0.1,0.01995262314968879,0,0.647024579000572
82,862,FarLowNarrow,0.1,0.15,0.2,0.012589254117941668,0,0.6533186630003911
82,863,ThreeLinesControl,0.0,0.0,0.1,0.025118864315095794,1,0.5952695239975583
82,864,ThreeLinesControl,0.0,0.0,0.1,0.01995262314968879,1,0.6971837189994403
82,865,FarLowNarrow,0.1,0.15,0.2,0.01584893192461113,1,0.7200209329967038
82,866,FarHighNarrow_null,0.2,0.15,0.1,0.0063095734448019285,1,0.701596590999543
82,867,FarLowNarrow,0.1,0.15,0.2,0.012589254117941668,0,0.7973688659985783
82,868,Constant,0.1,0.1,0.1,0.009999999999999995,0,0.8197227269993164
82,869,FarHighNarrow_null,0.2,0.15,0.1,0.005011872336272719,1,0.799854373002745
82,870,Constant_null,0.1,0.1,0.1,0.0015848931924611121,1,0.7170857260025514
82,871,ThreeLinesControl,0.0,0.0,0.1,0.015848931924611127,1,0.7293869390014152
82,872,Constant,0.1,0.1,0.1,0.012589254117941666,1,0.5825165739988734
82,873,FarLowNarrow,0.1,0.15,0.2,0.01584893192461113,1,0.5641603699987172
82,874,ThreeLinesControl_null,0.0,0.0,0.1,0.0031622776601683772,1,0.47196467299727374
82,875,FarLowNarrow,0.1,0.15,0.2,0.012589254117941668,0,0.47796017300061067
82,876,FarLowNarrow,0.1,0.15,0.2,0.01584893192461113,1,0.4911025029978191
82,877,FarLowWide,0.03,0.25,0.5,0.012589254117941666,0,0.4013181930022256
82,878,FarHighWide,0.5,0.25,0.03,0.01584893192461113,1,0.6952804319989809
82,879,ThreeLinesControl,0.0,0.0,0.1,0.012589254117941666,0,0.5735823880022508
82,880,FarHighWide,0.5,0.25,0.03,0.012589254117941668,0,0.5151775529993756
82,881,FarLowWide,0.03,0.25,0.5,0.015848931924611127,1,0.5540080090031552
82,882,FarLowWide,0.03,0.25,0.5,0.012589254117941666,0,0.5523642209991522
82,883,Constant,0.1,0.1,0.1,0.009999999999999995,0,0.8223101130024588
82,884,FarLowNarrow,0.1,0.15,0.2,0.012589254117941668,0,0.6668704990006518
82,885,FarHighWide,0.5,0.25,0.03,0.01584893192461113,1,1.0404606239972054
82,886,Constant,0.1,0.1,0.1,0.012589254117941666,0,1.1894332490010129
82,887,FarLowNarrow,0.1,0.15,0.2,0.01584893192461113,1,0.6816557749989443
82,888,FarHighWide,0.5,0.25,0.03,0.012589254117941668,0,0.46286783600226045
82,889,ThreeLinesControl,0.0,0.0,0.1,0.015848931924611127,1,0.6370614219995332
82,890,FarHighNarrow,0.2,0.15,0.1,0.019952623149688792,1,0.4643981810004334
82,891,FarHighWide,0.5,0.25,0.03,0.01584893192461113,1,0.5186721270001726
82,892,FarHighWide,0.5,0.25,0.03,0.012589254117941668,0,0.7728861630021129
82,893,FarHighWide_null,0.5,0.25,0.03,0.031622776601683784,1,0.6178469539991056
82,894,FarLowWide,0.03,0.25,0.5,0.015848931924611127,1,0.6716941879967635
82,895,FarHighNarrow,0.2,0.15,0.1,0.01584893192461113,1,0.645801159000257
82,896,ThreeLinesControl,0.0,0.0,0.1,0.012589254117941666,0,0.556092119000823
82,897,ThreeLinesControl,0.0,0.0,0.1,0.015848931924611127,0,0.666403311999602
82,898,Constant,0.1,0.1,0.1,0.015848931924611127,1,0.6325380819980637
82,899,FarLowWide,0.03,0.25,0.5,0.012589254117941666,1,0.5664859019998403
82,900,Constant,0.1,0.1,0.1,0.012589254117941666,0,0.6061315859988099
82,901,FarLowNarrow,0.1,0.15,0.2,0.012589254117941668,0,0.6180939540026884
82,902,FarLowNarrow,0.1,0.15,0.2,0.01584893192461113,0,0.6400379000006069
82,903,Constant,0.1,0.1,0.1,0.015848931924611127,1,0.611166951002815
82,904,FarHighWide,0.5,0.25,0.03,0.01584893192461113,1,0.5853211889989325
82,905,FarLowWide,0.03,0.25,0.5,0.009999999999999995,0,0.6302801290003117
82,906,FarHighNarrow,0.2,0.15,0.1,0.012589254117941668,0,0.7386138100009703
82,907,FarLowNarrow,0.1,0.15,0.2,0.019952623149688792,0,0.7275781270000152
82,908,FarHighNarrow_null,0.2,0.15,0.1,0.00398107170553497,1,0.7260233289998723
82,909,FarHighNarrow,0.2,0.15,0.1,0.01584893192461113,0,0.7321437259997765
82,910,FarLowWide,0.03,0.25,0.5,0.012589254117941666,1,0.5299435269989772
82,911,FarHighNarrow,0.2,0.15,0.1,0.019952623149688792,1,0.4403004619998683
82,912,ThreeLinesControl,0.0,0.0,0.1,0.01995262314968879,0,0.6784646599990083
82,913,FarLowNarrow,0.1,0.15,0.2,0.025118864315095798,1,0.6759335010028735
82,914,FarLowNarrow,0.1,0.15,0.2,0.019952623149688792,1,0.69915399599995
82,915,FarHighWide,0.5,0.25,0.03,0.012589254117941668,1,0.624999118001142
82,916,FarLowNarrow,0.1,0.15,0.2,0.01584893192461113,1,0.6246529800009739
82,917,Constant,0.1,0.1,0.1,0.012589254117941666,0,0.4672426170000108
82,918,FarHighNarrow_null,0.2,0.15,0.1,0.0031622776601683772,1,0.4413039060018491
82,919,FarLowWide,0.03,0.25,0.5,0.009999999999999995,0,0.3757512140000472
82,920,FarHighNarrow,0.2,0.15,0.1,0.01584893192461113,0,0.4105164770007832
82,921,FarLowNarrow,0.1,0.15,0.2,0.012589254117941668,0,0.4728077409999969
82,922,ThreeLinesControl,0.0,0.0,0.1,0.025118864315095794,1,0.7388203449991124
82,923,FarLowWide,0.03,0.25,0.5,0.012589254117941666,0,0.7528875059979327
82,924,Constant,0.1,0.1,0.1,0.015848931924611127,1,0.7353241440032434
82,925,ThreeLinesControl,0.0,0.0,0.1,0.01995262314968879,0,0.8052402139983315
82,926,ThreeLinesControl_null,0.0,0.0,0.1,0.002511886431509578,1,0.9235969159999513
82,927,ThreeLinesControl,0.0,0.0,0.1,0.025118864315095794,1,0.7056160989995988
82,928,FarLowNarrow,0.1,0.15,0.2,0.01584893192461113,1,0.727772925998579
82,929,FarHighWide,0.5,0.25,0.03,0.009999999999999997,0,0.5249837010014744
82,930,FarLowWide,0.03,0.25,0.5,0.015848931924611127,0,99
82,931,FarLowWide,0.03,0.25,0.5,0.01995262314968879,0,0.762566114000947
82,932,FarHighNarrow,0.2,0.15,0.1,0.019952623149688792,1,0.8643813399976352
82,933,ThreeLinesControl,0.0,0.0,0.1,0.01995262314968879,1,0.9472862000002351
82,934,FarHighNarrow,0.2,0.15,0.1,0.01584893192461113,0,99
82,935,Constant,0.1,0.1,0.1,0.012589254117941666,0,1.0957926079972822
82,936,FarLowNarrow,0.1,0.15,0.2,0.012589254117941668,0,1.179065645999799
82,937,FarLowNarrow,0.1,0.15,0.2,0.01584893192461113,0,99
82,938,FarHighNarrow,0.2,0.15,0.1,0.019952623149688792,1,0.8049690280022332
82,939,FarHighWide,0.5,0.25,0.03,0.012589254117941668,0,0.7944825320009841
82,940,FarHighNarrow,0.2,0.15,0.1,0.01584893192461113,1,0.7367561630017008
82,941,Constant,0.1,0.1,0.1,0.015848931924611127,0,99
82,942,Constant,0.1,0.1,0.1,0.01995262314968879,1,0.7809065789988381
82,943,FarHighWide,0.5,0.25,0.03,0.01584893192461113,0,99
82,944,ThreeLinesControl,0.0,0.0,0.1,0.015848931924611127,0,0.6562696410001081
82,945,FarHighWide,0.5,0.25,0.03,0.019952623149688792,0,0.8224948319984833
82,946,FarHighNarrow,0.2,0.15,0.1,0.012589254117941668,0,0.7566418489986972
82,947,FarLowWide_null,0.03,0.25,0.5,0.009999999999999995,0,99
82,948,FarLowNarrow,0.1,0.15,0.2,0.019952623149688792,1,0.7533977000020968
82,949,Constant,0.1,0.1,0.1,0.015848931924611127,0,99
82,950,Constant,0.1,0.1,0.1,0.01995262314968879,0,0.689850701000978
82,951,FarLowWide,0.03,0.25,0.5,0.025118864315095794,0,99
82,952,Constant,0.1,0.1,0.1,0.025118864315095794,0,99
82,953,FarLowNarrow,0.1,0.15,0.2,0.01584893192461113,0,0.5059292209989508
82,954,ThreeLinesControl,0.0,0.0,0.1,0.01995262314968879,0,0.4795756980020087
82,955,FarLowNarrow,0.1,0.15,0.2,0.019952623149688792,1,0.4269114820017421
82,956,FarLowNarrow,0.1,0.15,0.2,0.01584893192461113,0,0.5300542619988846
82,957,FarLowWide,0.03,0.25,0.5,0.031622776601683784,1,0.4789276650008105
82,958,FarLowNarrow,0.1,0.15,0.2,0.019952623149688792,1,0.5973667619982734
82,959,FarHighWide,0.5,0.25,0.03,0.025118864315095798,1,0.5155886799984728
82,960,FarHighNarrow,0.2,0.15,0.1,0.01584893192461113,0,0.3726013679988682
82,961,FarLowNarrow,0.1,0.15,0.2,0.01584893192461113,1,0.48955364700304926
82,962,ThreeLinesControl,0.0,0.0,0.1,0.025118864315095794,1,0.3196515189993079
82,963,Constant,0.1,0.1,0.1,0.031622776601683784,1,0.5020936459986842
82,964,FarLowNarrow,0.1,0.15,0.2,0.012589254117941668,0,0.38831433700033813
82,965,FarHighNarrow_null,0.2,0.15,0.1,0.002511886431509578,1,0.26660543300022255
82,966,Constant,0.1,0.1,0.1,0.02511886431509579,1,0.4008412020011747
82,967,ThreeLinesControl,0.0,0.0,0.1,0.01995262314968879,1,0.2935252320021391
82,968,ThreeLinesControl,0.0,0.0,0.1,0.015848931924611127,1,0.5088956990002771
82,969,FarHighWide_null,0.5,0.25,0.03,0.02511886431509579,1,0.5760735289986769
82,970,FarHighWide,0.5,0.25,0.03,0.019952623149688792,1,0.43819788600012544
82,971,FarHighNarrow,0.2,0.15,0.1,0.019952623149688792,1,0.5693587259993365
82,972,FarHighWide,0.5,0.25,0.03,0.01584893192461113,1,0.6314766180003062
82,973,Constant,0.1,0.1,0.1,0.01995262314968879,1,0.6375291289987217
82,974,FarLowNarrow,0.1,0.15,0.2,0.01584893192461113,1,0.7779462259968568
82,975,FarHighWide,0.5,0.25,0.03,0.012589254117941668,0,0.6317994669989275
82,976,FarLowNarrow,0.1,0.15,0.2,0.012589254117941668,0,0.48599165199993877
82,977,FarHighWide,0.5,0.25,0.03,0.01584893192461113,1,0.5081763380003395
82,978,FarHighWide,0.5,0.25,0.03,0.012589254117941668,0,0.537215838998236
82,979,ThreeLinesControl,0.0,0.0,0.1,0.012589254117941666,0,0.6073290719978104
82,980,Constant,0.1,0.1,0.1,0.015848931924611127,0,0.6615175970000564
82,981,FarLowNarrow,0.1,0.15,0.2,0.01584893192461113,0,0.8118206959989038
82,982,FarHighWide,0.5,0.25,0.03,0.01584893192461113,1,0.4571301369978755
82,983,ThreeLinesControl,0.0,0.0,0.1,0.015848931924611127,1,0.5029017500019108
82,984,Constant,0.1,0.1,0.1,0.01995262314968879,1,0.4370489020002424
82,985,ThreeLinesControl,0.0,0.0,0.1,0.012589254117941666,1,0.5445106350016431
82,986,Constant,0.1,0.1,0.1,0.015848931924611127,0,0.5505896120012039
82,987,FarHighNarrow,0.2,0.15,0.1,0.01584893192461113,1,0.5805671509988315
82,988,FarHighWide,0.5,0.25,0.03,0.012589254117941668,1,0.6399484199973813
82,989,ThreeLinesControl,0.0,0.0,0.1,0.009999999999999995,0,0.5978859430033481
82,990,ThreeLinesControl,0.0,0.0,0.1,0.012589254117941666,0,0.722231660001853
82,991,ThreeLinesControl,0.0,0.0,0.1,0.015848931924611127,1,0.4322852050026995
82,992,ThreeLinesControl,0.0,0.0,0.1,0.012589254117941666,0,0.43010942899854854
82,993,FarHighWide,0.5,0.25,0.03,0.009999999999999997,1,0.48443008699905477
82,994,FarHighWide,0.5,0.25,0.03,0.007943282347242812,0,0.5468429100001231
82,995,FarHighWide,0.5,0.25,0.03,0.009999999999999997,1,0.6396833760009031
82,996,FarHighNarrow_null,0.2,0.15,0.1,0.001995262314968878,1,0.45419392099938705
82,997,FarHighNarrow,0.2,0.15,0.1,0.012589254117941668,0,0.5018379710018053
82,998,FarLowNarrow,0.1,0.15,0.2,0.019952623149688792,1,0.5234165090005263
82,999,FarHighWide,0.5,0.25,0.03,0.007943282347242812,0,0.5434137640004337
82,1000,Constant,0.1,0.1,0.1,0.01995262314968879,1,0.6933097959990846
82,1001,Constant,0.1,0.1,0.1,0.015848931924611127,0,0.31965549499727786
82,1002,Constant,0.1,0.1,0.1,0.01995262314968879,1,0.8290570410026703
82,1003,FarHighWide,0.5,0.25,0.03,0.009999999999999997,0,0.803109182001208
82,1004,FarHighNarrow,0.2,0.15,0.1,0.01584893192461113,0,0.5671501270007866
82,1005,FarHighWide,0.5,0.25,0.03,0.012589254117941668,0,0.5238632279979356
82,1006,ThreeLinesControl,0.0,0.0,0.1,0.015848931924611127,1,0.45845667400135426
82,1007,FarHighNarrow,0.2,0.15,0.1,0.019952623149688792,1,0.4155157129971485
82,1008,FarHighWide,0.5,0.25,0.03,0.01584893192461113,1,0.5898364550012047
82,1009,ThreeLinesControl,0.0,0.0,0.1,0.012589254117941666,0,0.500004485998943
82,1010,Constant,0.1,0.1,0.1,0.015848931924611127,1,0.39295831300114514
82,1011,Constant,0.1,0.1,0.1,0.012589254117941666,0,99
82,1012,Constant,0.1,0.1,0.1,0.015848931924611127,1,0.574644337000791
82,1013,ThreeLinesControl,0.0,0.0,0.1,0.015848931924611127,0,0.5328376059987932
82,1014,Constant,0.1,0.1,0.1,0.012589254117941666,0,0.49858512799983146
82,1015,FarLowNarrow,0.1,0.15,0.2,0.01584893192461113,1,0.503986793999502
82,1016,FarLowNarrow,0.1,0.15,0.2,0.012589254117941668,0,0.4289620269992156
82,1017,Constant,0.1,0.1,0.1,0.015848931924611127,1,0.5121953769994434
82,1018,FarHighWide,0.5,0.25,0.03,0.012589254117941668,0,0.39003007000064827
82,1019,FarHighWide,0.5,0.25,0.03,0.01584893192461113,1,0.40455972899871995
82,1020,FarLowNarrow,0.1,0.15,0.2,0.01584893192461113,1,0.5674535660000402
82,1021,Constant,0.1,0.1,0.1,0.012589254117941666,0,0.5336721490020864
82,1022,FarLowNarrow,0.1,0.15,0.2,0.012589254117941668,0,0.6598411859995394
82,1023,FarLowWide,0.03,0.25,0.5,0.02511886431509579,1,0.46515618699777406
82,1024,FarHighWide,0.5,0.25,0.03,0.012589254117941668,0,0.5831469080003444
82,1025,FarHighWide_null,0.5,0.25,0.03,0.01995262314968879,1,0.6203392050010734
82,1026,FarLowNarrow,0.1,0.15,0.2,0.01584893192461113,1,0.6114138350021676
82,1027,FarLowNarrow,0.1,0.15,0.2,0.012589254117941668,0,0.6086949550008285
82,1028,FarHighWide,0.5,0.25,0.03,0.01584893192461113,1,0.639796267998463
82,1029,FarLowWide_null,0.03,0.25,0.5,0.012589254117941666,1,0.7031798429998162
82,1030,FarHighWide,0.5,0.25,0.03,0.012589254117941668,0,0.7743702759980806
82,1031,FarLowNarrow,0.1,0.15,0.2,0.01584893192461113,1,0.8492808569972112
82,1032,FarHighWide,0.5,0.25,0.03,0.01584893192461113,1,0.8152713479976228
82,1033,FarLowNarrow,0.1,0.15,0.2,0.012589254117941668,0,0.7495654949998425
82,1034,FarLowNarrow,0.1,0.15,0.2,0.01584893192461113,0,0.9205425130021467
82,1035,ThreeLinesControl,0.0,0.0,0.1,0.01995262314968879,1,0.8866933659992355
82,1036,FarLowWide_null,0.03,0.25,0.5,0.009999999999999995,1,0.6980352610007685
82,1037,FarLowWide,0.03,0.25,0.5,0.01995262314968879,1,0.6789990920005948
82,1038,FarLowNarrow,0.1,0.15,0.2,0.019952623149688792,1,0.8046425749998889
82,1039,FarHighNarrow,0.2,0.15,0.1,0.01584893192461113,1,0.7544344499983708
82,1040,FarHighNarrow,0.2,0.15,0.1,0.012589254117941668,0,0.8645139180007391
82,1041,FarHighWide,0.5,0.25,0.03,0.012589254117941668,1,0.8306645379998372
82,1042,ThreeLinesControl,0.0,0.0,0.1,0.015848931924611127,1,0.6295001019971096
82,1043,FarHighNarrow,0.2,0.15,0.1,0.01584893192461113,1,0.5230176420009229
82,1044,FarHighNarrow,0.2,0.15,0.1,0.012589254117941668,0,0.5451271479978459
82,1045,FarHighWide,0.5,0.25,0.03,0.009999999999999997,0,0.5995767530002922
82,1046,FarLowWide,0.03,0.25,0.5,0.015848931924611127,0,0.7265255720012647
82,1047,FarHighNarrow,0.2,0.15,0.1,0.01584893192461113,1,0.5226235990012356
82,1048,FarLowNarrow,0.1,0.15,0.2,0.01584893192461113,1,0.6647012009998434
82,1049,FarLowWide,0.03,0.25,0.5,0.01995262314968879,1,0.49382519899882027
82,1050,FarHighNarrow,0.2,0.15,0.1,0.012589254117941668,0,0.6647922780030058
82,1051,ThreeLinesControl,0.0,0.0,0.1,0.012589254117941666,0,0.5750703230005456
82,1052,ThreeLinesControl,0.0,0.0,0.1,0.015848931924611127,0,0.5893625979988428
82,1053,FarLowNarrow,0.1,0.15,0.2,0.012589254117941668,0,0.5203838870002073
82,1054,FarLowNarrow,0.1,0.15,0.2,0.01584893192461113,1,0.6546001640017494
82,1055,FarLowNarrow,0.1,0.15,0.2,0.012589254117941668,1,1.1878462929998932
82,1056,ThreeLinesControl,0.0,0.0,0.1,0.01995262314968879,1,0.6418807029986056
82,1057,ThreeLinesControl,0.0,0.0,0.1,0.015848931924611127,0,0.5041755309975997
82,1058,FarHighWide_null,0.5,0.25,0.03,0.015848931924611127,1,0.8043484119989444
82,1059,ThreeLinesControl,0.0,0.0,0.1,0.01995262314968879,1,0.714473309002642
82,1060,FarLowWide_null,0.03,0.25,0.5,0.00794328234724281,1,0.5447859929990955
82,1061,FarHighWide_null,0.5,0.25,0.03,0.012589254117941666,1,0.471171143999527
82,1062,FarHighWide,0.5,0.25,0.03,0.012589254117941668,0,0.716961280999385
82,1063,ThreeLinesControl_null,0.0,0.0,0.1,0.001995262314968878,1,0.6887962330001756
82,1064,ThreeLinesControl,0.0,0.0,0.1,0.015848931924611127,1,0.7191490090008301
82,1065,FarHighWide_null,0.5,0.25,0.03,0.009999999999999995,1,0.6852747709999676
82,1066,FarLowWide,0.03,0.25,0.5,0.015848931924611127,0,0.6246442590017978
82,1067,FarLowNarrow,0.1,0.15,0.2,0.009999999999999997,0,0.6546140860009473
82,1068,FarLowNarrow,0.1,0.15,0.2,0.012589254117941668,0,0.7157743010029662
82,1069,FarLowNarrow,0.1,0.15,0.2,0.01584893192461113,0,0.744021642000007
82,1070,FarHighWide,0.5,0.25,0.03,0.01584893192461113,1,0.6381536050030263
82,1071,FarLowWide_null,0.03,0.25,0.5,0.0063095734448019285,1,0.48418147999836947
82,1072,FarHighWide,0.5,0.25,0.03,0.012589254117941668,0,0.4574218009984179
82,1073,FarLowWide,0.03,0.25,0.5,0.01995262314968879,1,0.9753402070018637
82,1074,FarLowWide,0.03,0.25,0.5,0.015848931924611127,0,0.6697655409989238
82,1075,FarLowNarrow,0.1,0.15,0.2,0.019952623149688792,1,0.5640225280003506
82,1076,FarLowWide_null,0.03,0.25,0.5,0.005011872336272719,1,0.4579179079992173
82,1077,FarLowNarrow,0.1,0.15,0.2,0.01584893192461113,1,0.46438780700191273
82,1078,ThreeLinesControl,0.0,0.0,0.1,0.012589254117941666,1,0.5503193240001565
82,1079,FarHighWide,0.5,0.25,0.03,0.01584893192461113,1,0.4776747149990115
82,1080,FarLowWide,0.03,0.25,0.5,0.01995262314968879,0,0.43689040200115414
82,1081,FarHighNarrow,0.2,0.15,0.1,0.01584893192461113,0,0.2834404360000917
82,1082,FarHighWide,0.5,0.25,0.03,0.012589254117941668,0,0.35330682300264016
82,1083,FarLowWide,0.03,0.25,0.5,0.025118864315095794,1,0.48783774000185076
82,1084,FarLowWide,0.03,0.25,0.5,0.01995262314968879,1,0.49416669299898786
82,1085,ThreeLinesControl,0.0,0.0,0.1,0.009999999999999995,0,0.5329718460016011
82,1086,FarLowWide,0.03,0.25,0.5,0.015848931924611127,1,0.48810090299957665
82,1087,ThreeLinesControl,0.0,0.0,0.1,0.012589254117941666,0,0.38232635099848267
82,1088,FarLowNarrow,0.1,0.15,0.2,0.012589254117941668,0,0.6172512680022919
82,1089,FarHighNarrow,0.2,0.15,0.1,0.019952623149688792,0,0.7193485310017422
82,1090,FarLowWide_null,0.03,0.25,0.5,0.00398107170553497,1,0.6456752520025475
82,1091,FarLowNarrow,0.1,0.15,0.2,0.01584893192461113,1,0.47267960400131415
82,1092,FarHighWide,0.5,0.25,0.03,0.01584893192461113,0,0.5110579799984407
82,1093,FarLowWide,0.03,0.25,0.5,0.012589254117941666,1,0.5411586839982192
82,1094,FarLowNarrow,0.1,0.15,0.2,0.012589254117941668,0,0.38726395199773833
82,1095,FarHighNarrow,0.2,0.15,0.1,0.025118864315095798,1,0.6482795539996005
82,1096,FarHighWide_null,0.5,0.25,0.03,0.00794328234724281,1,0.5982442480017198
82,1097,ThreeLinesControl,0.0,0.0,0.1,0.015848931924611127,1,0.7736936750006862
82,1098,FarHighWide,0.5,0.25,0.03,0.019952623149688792,1,0.6346064819990715
82,1099,FarLowWide,0.03,0.25,0.5,0.009999999999999995,1,0.6893949090008391
82,1100,FarLowNarrow,0.1,0.15,0.2,0.01584893192461113,0,0.7283207979999133
82,1101,FarLowNarrow,0.1,0.15,0.2,0.019952623149688792,1,0.4622831339984259
82,1102,FarLowNarrow,0.1,0.15,0.2,0.01584893192461113,1,0.7863742589979665
82,1103,FarLowNarrow,0.1,0.15,0.2,0.012589254117941668,0,0.5596175660029985
82,1104,FarLowWide,0.03,0.25,0.5,0.00794328234724281,1,0.6667185869991954
82,1105,FarLowWide_null,0.03,0.25,0.5,0.0031622776601683772,1,0.4006921850013896
82,1106,FarLowWide,0.03,0.25,0.5,0.0063095734448019285,0,0.414743223998812
82,1107,FarLowNarrow,0.1,0.15,0.2,0.01584893192461113,1,0.45126472099946113
82,1108,ThreeLinesControl,0.0,0.0,0.1,0.012589254117941666,1,0.5053194329993858
82,1109,FarHighWide,0.5,0.25,0.03,0.01584893192461113,1,0.5184265200005029
82,1110,FarHighWide,0.5,0.25,0.03,0.012589254117941668,0,0.48418075800145743
82,1111,FarLowNarrow,0.1,0.15,0.2,0.012589254117941668,0,0.47424759400018957
82,1112,FarLowNarrow,0.1,0.15,0.2,0.01584893192461113,1,0.3849062679983035
82,1113,FarHighNarrow,0.2,0.15,0.1,0.019952623149688792,1,0.3669586470023205
82,1114,FarLowWide,0.03,0.25,0.5,0.00794328234724281,0,0.34134203500070726
82,1115,FarHighNarrow,0.2,0.15,0.1,0.01584893192461113,1,0.3615752320001775
82,1116,FarHighNarrow,0.2,0.15,0.1,0.012589254117941668,1,0.42374064799878397
82,1117,FarHighNarrow,0.2,0.15,0.1,0.009999999999999997,0,0.48680867299844977
82,1118,FarHighWide,0.5,0.25,0.03,0.01584893192461113,1,0.4339496799984772
82,1119,FarHighNarrow,0.2,0.15,0.1,0.012589254117941668,0,0.4879613099983544
82,1120,FarLowWide_null,0.03,0.25,0.5,0.002511886431509578,1,0.3499480020000192
82,1121,FarLowWide,0.03,0.25,0.5,0.009999999999999995,0,0.4171643729969219
82,1122,FarHighWide,0.5,0.25,0.03,0.012589254117941668,1,0.5915360100007092
82,1123,FarHighWide,0.5,0.25,0.03,0.009999999999999997,0,0.5223186040020664
82,1124,FarLowWide,0.03,0.25,0.5,0.012589254117941666,0,0.5444875020002655
82,1125,FarHighNarrow,0.2,0.15,0.1,0.01584893192461113,1,0.49469009499807726
82,1126,FarHighNarrow,0.2,0.15,0.1,0.012589254117941668,0,0.6373224809976819
82,1127,FarLowWide,0.03,0.25,0.5,0.015848931924611127,1,0.45896964199710055
82,1128,FarHighNarrow,0.2,0.15,0.1,0.01584893192461113,0,0.43326345800232957
82,1129,FarLowWide,0.03,0.25,0.5,0.012589254117941666,0,0.46240641199983656
82,1130,FarHighNarrow,0.2,0.15,0.1,0.019952623149688792,1,0.5723107749981864
82,1131,FarHighWide_null,0.5,0.25,0.03,0.0063095734448019285,1,0.4498012479998579
82,1132,FarLowNarrow,0.1,0.15,0.2,0.012589254117941668,0,0.3049923360013054
82,1133,FarLowWide,0.03,0.25,0.5,0.015848931924611127,0,0.5510778580028273
82,1134,FarLowWide_null,0.03,0.25,0.5,0.001995262314968878,1,0.44325716199819
82,1135,FarHighWide,0.5,0.25,0.03,0.012589254117941668,0,0.43231703100173036
82,1136,FarLowNarrow,0.1,0.15,0.2,0.01584893192461113,1,0.5266170479990251
82,1137,FarHighWide_null,0.5,0.25,0.03,0.005011872336272719,1,0.4578534419997595
82,1138,FarHighNarrow,0.2,0.15,0.1,0.01584893192461113,1,0.511783670001023
82,1139,FarLowWide,0.03,0.25,0.5,0.01995262314968879,1,0.7901457759980985
82,1140,FarLowNarrow,0.1,0.15,0.2,0.012589254117941668,0,0.498051407001185
82,1141,FarLowWide,0.03,0.25,0.5,0.015848931924611127,0,0.3920723420014838
82,1142,FarHighNarrow,0.2,0.15,0.1,0.012589254117941668,0,0.5742990440012363
82,1143,FarLowNarrow,0.1,0.15,0.2,0.01584893192461113,0,0.6204245849985455
82,1144,FarLowWide,0.03,0.25,0.5,0.01995262314968879,0,0.4255401010013884
82,1145,FarHighNarrow,0.2,0.15,0.1,0.01584893192461113,1,0.5995141460007289
82,1146,FarLowNarrow,0.1,0.15,0.2,0.019952623149688792,0,0.5020239149998815
82,1147,FarLowWide,0.03,0.25,0.5,0.025118864315095794,1,0.48407426600169856
82,1148,FarHighNarrow,0.2,0.15,0.1,0.012589254117941668,0,0.5546667800008436
82,1149,FarHighWide,0.5,0.25,0.03,0.01584893192461113,0,0.49642922099883435
82,1150,FarLowWide,0.03,0.25,0.5,0.01995262314968879,1,0.4755347999998776
82,1151,FarHighNarrow,0.2,0.15,0.1,0.01584893192461113,0,0.5137118559978262
82,1152,FarHighWide,0.5,0.25,0.03,0.019952623149688792,1,0.5597167069972784
82,1153,FarHighWide_null,0.5,0.25,0.03,0.00398107170553497,1,0.4416796740006248
82,1154,FarHighWide,0.5,0.25,0.03,0.01584893192461113,0,0.5920071289983753
82,1155,FarHighNarrow,0.2,0.15,0.1,0.019952623149688792,1,0.4702519580023363
82,1156,FarLowWide,0.03,0.25,0.5,0.015848931924611127,0,0.45939487099894905
82,1157,FarHighWide_null,0.5,0.25,0.03,0.0031622776601683772,1,0.46436193299814477
82,1158,FarLowWide,0.03,0.25,0.5,0.01995262314968879,0,0.45457461399928434
82,1159,FarLowWide,0.03,0.25,0.5,0.025118864315095794,1,0.5649670050006534
82,1160,FarHighNarrow,0.2,0.15,0.1,0.01584893192461113,0,0.4912175240024226
82,1161,FarLowWide,0.03,0.25,0.5,0.01995262314968879,0,0.5295372330001555
82,1162,FarHighWide,0.5,0.25,0.03,0.019952623149688792,1,0.5754383870007587
82,1163,FarLowWide,0.03,0.25,0.5,0.025118864315095794,1,0.5654167899992899
82,1164,FarHighNarrow,0.2,0.15,0.1,0.019952623149688792,1,0.6338877559974208
82,1165,FarHighWide,0.5,0.25,0.03,0.01584893192461113,1,0.5994339669996407
82,1166,FarHighWide,0.5,0.25,0.03,0.012589254117941668,1,0.7020224539992341
82,1167,FarHighNarrow,0.2,0.15,0.1,0.01584893192461113,1,0.7850804459994833
82,1168,FarHighNarrow,0.2,0.15,0.1,0.012589254117941668,0,0.6953748800005997
82,1169,FarLowWide,0.03,0.25,0.5,0.01995262314968879,1,0.6903589710018423
82,1170,FarLowWide,0.03,0.25,0.5,0.015848931924611127,1,0.704609578999225
82,1171,FarHighNarrow,0.2,0.15,0.1,0.01584893192461113,1,0.6948697950028873
82,1172,FarHighNarrow,0.2,0.15,0.1,0.012589254117941668,1,0.5216049100017699
82,1173,FarHighWide_null,0.5,0.25,0.03,0.002511886431509578,1,0.4960447049998038
82,1174,FarHighNarrow,0.2,0.15,0.1,0.009999999999999997,0,0.6061767700011842
82,1175,FarLowWide,0.03,0.25,0.5,0.012589254117941666,0,0.7082804370002123
82,1176,FarHighNarrow,0.2,0.15,0.1,0.012589254117941668,0,0.8822863370005507
82,1177,FarHighNarrow,0.2,0.15,0.1,0.01584893192461113,1,0.6165684009974939
82,1178,FarHighNarrow,0.2,0.15,0.1,0.012589254117941668,1,0.5664940599999682
82,1179,FarHighNarrow,0.2,0.15,0.1,0.009999999999999997,0,0.4943535519996658
82,1180,FarHighNarrow,0.2,0.15,0.1,0.012589254117941668,0,0.426022618998104
82,1181,FarLowWide,0.03,0.25,0.5,0.015848931924611127,0,0.703046295002423
82,1182,FarLowWide,0.03,0.25,0.5,0.01995262314968879,0,0.7570236530009424
82,1183,FarLowWide,0.03,0.25,0.5,0.025118864315095794,1,0.7693311389994051
82,1184,FarLowWide,0.03,0.25,0.5,0.01995262314968879,0,0.7027380139988963
82,1185,FarLowWide,0.03,0.25,0.5,0.025118864315095794,0,0.5806563890000689
82,1186,FarLowWide,0.03,0.25,0.5,0.031622776601683784,1,0.35164851900117355
82,1187,FarLowWide,0.03,0.25,0.5,0.02511886431509579,1,0.36626225899817655
82,1188,FarLowWide,0.03,0.25,0.5,0.01995262314968879,0,0.43521511500148335
82,1189,FarLowWide,0.03,0.25,0.5,0.025118864315095794,1,0.4883136280004692
82,1190,FarLowWide,0.03,0.25,0.5,0.01995262314968879,0,0.46244828199996846
82,1191,FarLowWide,0.03,0.25,0.5,0.025118864315095794,0,0.5167067690017575
82,1192,FarLowWide,0.03,0.25,0.5,0.031622776601683784,1,0.3707050680022803
82,1193,FarLowWide,0.03,0.25,0.5,0.02511886431509579,0,0.40100920099939685
82,1194,FarLowWide,0.03,0.25,0.5,0.031622776601683784,1,0.3433242169994628
82,1195,FarLowWide,0.03,0.25,0.5,0.02511886431509579,1,0.6063869049976347
82,1196,FarLowWide,0.03,0.25,0.5,0.01995262314968879,0,0.5384925690013915
82,1197,FarLowWide,0.03,0.25,0.5,0.025118864315095794,1,0.51330032199985
82,1198,FarLowWide,0.03,0.25,0.5,0.01995262314968879,0,0.5275029109980096
82,1199,FarHighWide_null,0.5,0.25,0.03,0.001995262314968878,1,0.5549218579981243
