Participant_Number,Trial_Number,Condition,FCfar,FCmed,FCclose,Target_Contrast,Correct_Response,Reaction_Time
75,0,FarLowNarrow,0.1,0.15,0.2,0.1,1,0.6266644490006001
75,1,FarLowNarrow,0.1,0.15,0.2,0.07943282347242815,1,0.2967795449985715
75,2,FarLowNarrow,0.1,0.15,0.2,0.06309573444801932,1,0.4538661599999614
75,3,FarHighWide,0.5,0.25,0.03,0.1,1,0.42773549699995783
75,4,FarLowNarrow,0.1,0.15,0.2,0.05011872336272722,1,0.5863621259995853
75,5,Constant,0.1,0.1,0.1,0.1,1,0.576581184999668
75,6,FarLowNarrow,0.1,0.15,0.2,0.03981071705534971,1,0.6476515690010274
75,7,ThreeLinesControl,0.0,0.0,0.1,0.1,1,0.7346558360004565
75,8,ThreeLinesControl,0.0,0.0,0.1,0.07943282347242815,1,0.7536044440003025
75,9,ThreeLinesControl,0.0,0.0,0.1,0.06309573444801932,1,0.7602590910009894
75,10,FarHighNarrow,0.2,0.15,0.1,0.1,1,0.8190495609997015
75,11,Constant,0.1,0.1,0.1,0.07943282347242815,1,0.7202107190005336
75,12,ThreeLinesControl,0.0,0.0,0.1,0.05011872336272722,1,0.6943997269991087
75,13,FarHighNarrow,0.2,0.15,0.1,0.07943282347242815,1,0.6346163790003629
75,14,FarLowNarrow,0.1,0.15,0.2,0.031622776601683784,1,0.6084835269994073
75,15,FarHighWide,0.5,0.25,0.03,0.07943282347242815,1,0.7446587630001886
75,16,FarLowWide,0.03,0.25,0.5,0.1,1,0.756262353999773
75,17,FarLowWide,0.03,0.25,0.5,0.07943282347242815,1,0.8018395979997877
75,18,ThreeLinesControl_null,0.0,0.0,0.1,0.1,1,0.7123429799994483
75,19,FarLowWide,0.03,0.25,0.5,0.06309573444801932,1,0.5342782099996839
75,20,FarHighWide,0.5,0.25,0.03,0.06309573444801932,1,0.5006875390008645
75,21,Constant,0.1,0.1,0.1,0.06309573444801932,1,0.5213847529994382
75,22,FarLowNarrow,0.1,0.15,0.2,0.02511886431509579,1,0.456202139999732
75,23,ThreeLinesControl_null,0.0,0.0,0.1,0.07943282347242815,1,0.7832943679986784
75,24,FarLowWide,0.03,0.25,0.5,0.05011872336272722,1,0.7140325380005379
75,25,FarHighWide,0.5,0.25,0.03,0.05011872336272722,1,0.5520417549996637
75,26,FarHighWide_null,0.5,0.25,0.03,0.1,1,0.8514367100015079
75,27,ThreeLinesControl,0.0,0.0,0.1,0.03981071705534971,1,0.5134126100001595
75,28,FarLowWide_null,0.03,0.25,0.5,0.1,1,0.5356896120010788
75,29,FarLowWide,0.03,0.25,0.5,0.03981071705534971,1,0.6198328549999133
75,30,FarLowNarrow_null,0.1,0.15,0.2,0.1,0,0.39396916500118095
75,31,Constant,0.1,0.1,0.1,0.05011872336272722,1,0.3189980809984263
75,32,FarLowNarrow,0.1,0.15,0.2,0.01995262314968879,1,0.7009980069997255
75,33,Constant,0.1,0.1,0.1,0.03981071705534971,1,0.6275826070013864
75,34,ThreeLinesControl,0.0,0.0,0.1,0.031622776601683784,1,0.6096343509998405
75,35,FarLowWide,0.03,0.25,0.5,0.031622776601683784,1,0.3597308649987099
75,36,FarLowNarrow,0.1,0.15,0.2,0.015848931924611127,1,0.3419235219989787
75,37,FarHighWide,0.5,0.25,0.03,0.03981071705534971,1,0.3406197330004943
75,38,FarHighWide,0.5,0.25,0.03,0.031622776601683784,1,0.36183863599944743
75,39,FarLowWide,0.03,0.25,0.5,0.02511886431509579,1,0.36044339399995806
75,40,FarHighNarrow,0.2,0.15,0.1,0.06309573444801932,1,0.33136573499905353
75,41,FarLowWide,0.03,0.25,0.5,0.01995262314968879,0,0.6335529709995171
75,42,FarHighWide,0.5,0.25,0.03,0.02511886431509579,1,0.4960018060010043
75,43,Constant_null,0.1,0.1,0.1,0.1,1,0.5389547499999026
75,44,Constant,0.1,0.1,0.1,0.031622776601683784,1,0.4411356069995236
75,45,FarHighNarrow,0.2,0.15,0.1,0.05011872336272722,1,0.3250218529992708
75,46,ThreeLinesControl,0.0,0.0,0.1,0.02511886431509579,1,0.459410432000368
75,47,FarHighWide,0.5,0.25,0.03,0.01995262314968879,1,0.7456643349996739
75,48,FarLowNarrow,0.1,0.15,0.2,0.012589254117941666,1,0.6944210269994073
75,49,Constant,0.1,0.1,0.1,0.02511886431509579,1,0.5967912270007218
75,50,Constant,0.1,0.1,0.1,0.01995262314968879,1,0.45906357999956526
75,51,FarLowWide,0.03,0.25,0.5,0.025118864315095794,1,0.32924783199996455
75,52,FarHighNarrow,0.2,0.15,0.1,0.03981071705534971,1,0.3430120800003351
75,53,Constant,0.1,0.1,0.1,0.015848931924611127,1,0.4446384359998774
75,54,FarLowNarrow,0.1,0.15,0.2,0.009999999999999995,0,0.3229738379995979
75,55,ThreeLinesControl,0.0,0.0,0.1,0.01995262314968879,0,0.5701879720018042
75,56,ThreeLinesControl,0.0,0.0,0.1,0.025118864315095794,1,0.37222949500028335
75,57,FarLowWide_null,0.03,0.25,0.5,0.07943282347242815,1,0.4509626670005673
75,58,FarHighWide,0.5,0.25,0.03,0.015848931924611127,1,0.3851280199996836
75,59,FarHighNarrow,0.2,0.15,0.1,0.031622776601683784,1,0.3154549099999713
75,60,FarLowNarrow,0.1,0.15,0.2,0.012589254117941666,0,0.48242193199985195
75,61,FarLowWide,0.03,0.25,0.5,0.01995262314968879,0,0.7755200819992751
75,62,FarHighWide,0.5,0.25,0.03,0.012589254117941666,1,0.3165321529995708
75,63,FarHighNarrow,0.2,0.15,0.1,0.02511886431509579,1,0.29774048999934166
75,64,Constant,0.1,0.1,0.1,0.012589254117941666,1,0.49608139299925824
75,65,ThreeLinesControl_null,0.0,0.0,0.1,0.06309573444801932,1,0.4698405710005318
75,66,FarLowNarrow,0.1,0.15,0.2,0.015848931924611127,0,0.43575013800000306
75,67,Constant,0.1,0.1,0.1,0.009999999999999995,0,0.41047618800075725
75,68,FarHighNarrow,0.2,0.15,0.1,0.01995262314968879,0,0.5926190999998653
75,69,FarHighNarrow,0.2,0.15,0.1,0.025118864315095794,0,0.5986312189997989
75,70,FarLowWide,0.03,0.25,0.5,0.025118864315095794,1,0.75596666400088
75,71,FarLowNarrow,0.1,0.15,0.2,0.01995262314968879,1,1.0673341140009143
75,72,FarHighNarrow,0.2,0.15,0.1,0.031622776601683784,1,0.8622207560001698
75,73,FarHighWide,0.5,0.25,0.03,0.009999999999999995,0,0.9403101549996791
75,74,Constant,0.1,0.1,0.1,0.012589254117941666,0,0.5774821800005157
75,75,FarLowWide,0.03,0.25,0.5,0.01995262314968879,1,0.9083506189999753
75,76,FarLowNarrow,0.1,0.15,0.2,0.015848931924611127,1,0.7389205640010914
75,77,FarHighWide,0.5,0.25,0.03,0.012589254117941666,0,0.6008785630001512
75,78,FarLowWide,0.03,0.25,0.5,0.015848931924611127,1,0.6941975680001633
75,79,ThreeLinesControl,0.0,0.0,0.1,0.01995262314968879,1,0.8114944780008955
75,80,ThreeLinesControl,0.0,0.0,0.1,0.015848931924611127,1,1.0414903910004796
75,81,FarHighWide,0.5,0.25,0.03,0.015848931924611127,1,1.167750172999149
75,82,Constant,0.1,0.1,0.1,0.015848931924611127,0,99
75,83,FarLowWide,0.03,0.25,0.5,0.012589254117941666,0,0.7558729769989441
75,84,Constant,0.1,0.1,0.1,0.01995262314968879,1,0.6021472749998793
75,85,Constant,0.1,0.1,0.1,0.015848931924611127,1,0.5920764629991027
75,86,Constant,0.1,0.1,0.1,0.012589254117941666,1,0.6535869500003173
75,87,FarLowWide,0.03,0.25,0.5,0.015848931924611127,0,0.3714256929997646
75,88,FarLowNarrow_null,0.1,0.15,0.2,0.1,1,0.4256994980005402
75,89,FarHighNarrow,0.2,0.15,0.1,0.02511886431509579,1,0.4846528849993774
75,90,FarLowWide,0.03,0.25,0.5,0.01995262314968879,0,0.5228069009990577
75,91,Constant,0.1,0.1,0.1,0.009999999999999995,1,1.0940977030004433
75,92,Constant_null,0.1,0.1,0.1,0.07943282347242815,1,0.4603152019990375
75,93,ThreeLinesControl,0.0,0.0,0.1,0.012589254117941666,0,0.5864604709986452
75,94,Constant,0.1,0.1,0.1,0.00794328234724281,0,0.4144826659994578
75,95,ThreeLinesControl,0.0,0.0,0.1,0.015848931924611127,1,1.2204517720001604
75,96,FarHighNarrow,0.2,0.15,0.1,0.01995262314968879,1,0.4988880910004809
75,97,ThreeLinesControl,0.0,0.0,0.1,0.012589254117941666,1,0.7048562070012849
75,98,Constant,0.1,0.1,0.1,0.009999999999999995,1,1.1512197830015793
75,99,FarHighWide,0.5,0.25,0.03,0.012589254117941666,1,0.5430607010002859
75,100,FarHighWide,0.5,0.25,0.03,0.009999999999999995,1,0.7729356289983116
75,101,FarLowNarrow,0.1,0.15,0.2,0.012589254117941666,0,1.0201703829989128
75,102,FarHighWide,0.5,0.25,0.03,0.00794328234724281,1,0.7987776439986192
75,103,FarLowWide,0.03,0.25,0.5,0.025118864315095794,1,0.7489015239989385
75,104,Constant,0.1,0.1,0.1,0.00794328234724281,1,0.5627222559996881
75,105,FarHighWide,0.5,0.25,0.03,0.0063095734448019285,0,1.1503343549993588
75,106,Constant,0.1,0.1,0.1,0.0063095734448019285,0,0.6443762260005315
75,107,FarHighNarrow,0.2,0.15,0.1,0.015848931924611127,1,0.3624807910000527
75,108,FarLowNarrow,0.1,0.15,0.2,0.015848931924611127,1,0.9335666079987277
75,109,ThreeLinesControl,0.0,0.0,0.1,0.009999999999999995,1,0.9787782259991218
75,110,FarLowNarrow,0.1,0.15,0.2,0.012589254117941666,0,0.6808982990005461
75,111,ThreeLinesControl,0.0,0.0,0.1,0.00794328234724281,0,0.4299912629994651
75,112,FarHighWide,0.5,0.25,0.03,0.00794328234724281,1,0.34817167300025176
75,113,FarHighNarrow,0.2,0.15,0.1,0.012589254117941666,1,0.6183525310007099
75,114,FarLowNarrow,0.1,0.15,0.2,0.015848931924611127,1,0.5606853700010106
75,115,ThreeLinesControl,0.0,0.0,0.1,0.009999999999999995,0,0.6225393349996011
75,116,ThreeLinesControl,0.0,0.0,0.1,0.012589254117941666,0,0.45274441900073725
75,117,FarLowWide,0.03,0.25,0.5,0.01995262314968879,1,0.37919970600160013
75,118,FarHighNarrow,0.2,0.15,0.1,0.009999999999999995,1,0.2822669400011364
75,119,Constant,0.1,0.1,0.1,0.00794328234724281,0,0.6539930649996677
75,120,ThreeLinesControl,0.0,0.0,0.1,0.015848931924611127,1,0.238503814998694
75,121,Constant,0.1,0.1,0.1,0.009999999999999995,0,0.41193394899892155
75,122,FarHighNarrow,0.2,0.15,0.1,0.00794328234724281,0,0.3697458499991626
75,123,ThreeLinesControl,0.0,0.0,0.1,0.012589254117941666,0,0.31200788500063936
75,124,FarLowNarrow,0.1,0.15,0.2,0.012589254117941666,1,0.44727987999976904
75,125,FarLowWide,0.03,0.25,0.5,0.015848931924611127,1,0.3733538199994655
75,126,ThreeLinesControl,0.0,0.0,0.1,0.015848931924611127,1,0.48946831899957033
75,127,Constant,0.1,0.1,0.1,0.012589254117941666,1,0.6554701639997802
75,128,FarLowWide,0.03,0.25,0.5,0.012589254117941666,0,0.4775794710003538
75,129,FarHighNarrow,0.2,0.15,0.1,0.009999999999999995,0,0.5126972220004973
75,130,FarHighNarrow,0.2,0.15,0.1,0.012589254117941666,1,0.5271698739998101
75,131,FarHighWide,0.5,0.25,0.03,0.0063095734448019285,1,0.8132376520006801
75,132,FarHighWide,0.5,0.25,0.03,0.005011872336272719,1,0.41627203300049587
75,133,ThreeLinesControl,0.0,0.0,0.1,0.012589254117941666,0,0.38271661599901563
75,134,FarHighWide,0.5,0.25,0.03,0.00398107170553497,0,0.7314655900008802
75,135,FarHighWide,0.5,0.25,0.03,0.00501187233627272,1,0.7858187580004596
75,136,FarHighNarrow,0.2,0.15,0.1,0.009999999999999995,1,0.5041952160008805
75,137,ThreeLinesControl,0.0,0.0,0.1,0.015848931924611127,1,0.3981046930002776
75,138,FarHighNarrow,0.2,0.15,0.1,0.00794328234724281,0,0.37932843399903504
75,139,FarLowNarrow,0.1,0.15,0.2,0.009999999999999995,0,0.2494546640009503
75,140,ThreeLinesControl,0.0,0.0,0.1,0.012589254117941666,0,99
75,141,FarHighWide_null,0.5,0.25,0.03,0.07943282347242815,1,0.4149741580004047
75,142,FarHighNarrow,0.2,0.15,0.1,0.009999999999999995,0,0.23809704900122597
75,143,FarLowNarrow,0.1,0.15,0.2,0.012589254117941666,0,0.2899350779989618
75,144,FarHighNarrow,0.2,0.15,0.1,0.012589254117941666,0,0.3432273830003396
75,145,FarLowWide,0.03,0.25,0.5,0.015848931924611127,0,0.3463892609997856
75,146,FarHighNarrow,0.2,0.15,0.1,0.015848931924611127,1,0.43253550400004315
75,147,Constant,0.1,0.1,0.1,0.009999999999999995,0,0.6387323540002399
75,148,FarLowNarrow,0.1,0.15,0.2,0.015848931924611127,0,0.36961688000155846
75,149,Constant,0.1,0.1,0.1,0.012589254117941666,0,0.2478915470001084
75,150,FarLowWide,0.03,0.25,0.5,0.01995262314968879,0,0.9821125819998997
75,151,FarHighNarrow,0.2,0.15,0.1,0.012589254117941666,0,99
75,152,FarLowWide,0.03,0.25,0.5,0.025118864315095794,1,0.48088283899960516
75,153,FarLowNarrow,0.1,0.15,0.2,0.01995262314968879,1,0.45545342799960054
75,154,ThreeLinesControl,0.0,0.0,0.1,0.015848931924611127,0,0.49339778600005957
75,155,FarHighNarrow,0.2,0.15,0.1,0.015848931924611127,1,0.38796177199947124
75,156,ThreeLinesControl,0.0,0.0,0.1,0.01995262314968879,1,0.2580258270008926
75,157,FarLowNarrow,0.1,0.15,0.2,0.015848931924611127,0,0.4492012139999133
75,158,FarLowNarrow,0.1,0.15,0.2,0.01995262314968879,0,0.31150793400047405
75,159,FarLowNarrow,0.1,0.15,0.2,0.025118864315095794,0,0.2833191760000773
75,160,ThreeLinesControl,0.0,0.0,0.1,0.015848931924611127,1,0.4335610899997846
75,161,FarLowWide,0.03,0.25,0.5,0.01995262314968879,1,0.534957759999088
75,162,FarHighNarrow,0.2,0.15,0.1,0.012589254117941666,1,0.9149272859995108
75,163,FarLowWide,0.03,0.25,0.5,0.015848931924611127,0,0.2799226160004764
75,164,FarLowWide,0.03,0.25,0.5,0.01995262314968879,0,0.5553068569988682
75,165,Constant,0.1,0.1,0.1,0.015848931924611127,1,0.4982855449998169
75,166,ThreeLinesControl,0.0,0.0,0.1,0.012589254117941666,1,0.47148263600138307
75,167,Constant,0.1,0.1,0.1,0.012589254117941666,1,0.3338544580001326
75,168,FarLowNarrow,0.1,0.15,0.2,0.031622776601683784,1,0.4596665249991929
75,169,ThreeLinesControl,0.0,0.0,0.1,0.009999999999999995,1,0.6659467720000976
75,170,FarHighWide,0.5,0.25,0.03,0.00398107170553497,0,0.7359845510000014
75,171,Constant,0.1,0.1,0.1,0.009999999999999995,0,1.045164654000473
75,172,ThreeLinesControl,0.0,0.0,0.1,0.00794328234724281,0,0.8674295200016786
75,173,Constant,0.1,0.1,0.1,0.012589254117941666,0,0.8030427880003117
75,174,FarLowWide,0.03,0.25,0.5,0.025118864315095794,1,0.8647871579996718
75,175,ThreeLinesControl,0.0,0.0,0.1,0.009999999999999995,0,0.6519393830003537
75,176,FarLowNarrow,0.1,0.15,0.2,0.02511886431509579,1,0.6338601730003575
75,177,FarHighWide,0.5,0.25,0.03,0.00501187233627272,0,1.2956957639999018
75,178,ThreeLinesControl,0.0,0.0,0.1,0.012589254117941666,0,99
75,179,FarLowNarrow,0.1,0.15,0.2,0.01995262314968879,0,1.1451949009988311
75,180,FarHighWide,0.5,0.25,0.03,0.006309573444801929,0,0.5093329690007522
75,181,FarHighWide,0.5,0.25,0.03,0.007943282347242812,0,0.4353530970001884
75,182,FarHighWide,0.5,0.25,0.03,0.009999999999999997,0,0.4565704389988241
75,183,ThreeLinesControl,0.0,0.0,0.1,0.015848931924611127,1,0.47103527299987036
75,184,FarHighWide,0.5,0.25,0.03,0.012589254117941668,0,0.5892630130001635
75,185,FarLowWide,0.03,0.25,0.5,0.01995262314968879,1,0.8273330400006671
75,186,FarLowWide,0.03,0.25,0.5,0.015848931924611127,0,99
75,187,FarHighWide,0.5,0.25,0.03,0.01584893192461113,1,0.15871391000109725
75,188,FarLowWide,0.03,0.25,0.5,0.01995262314968879,0,0.4603706959987903
75,189,FarHighNarrow,0.2,0.15,0.1,0.009999999999999995,0,0.32299172900093254
75,190,ThreeLinesControl,0.0,0.0,0.1,0.012589254117941666,0,0.3623916879987519
75,191,FarHighWide,0.5,0.25,0.03,0.012589254117941668,1,0.2849915270016936
75,192,FarHighWide,0.5,0.25,0.03,0.009999999999999997,0,0.24310956499903114
75,193,FarLowNarrow,0.1,0.15,0.2,0.025118864315095794,1,0.4416135139999824
75,194,FarHighWide,0.5,0.25,0.03,0.012589254117941668,1,0.7010511090011278
75,195,FarLowWide,0.03,0.25,0.5,0.025118864315095794,1,0.4428673649999837
75,196,ThreeLinesControl,0.0,0.0,0.1,0.015848931924611127,1,0.34399164200112864
75,197,Constant,0.1,0.1,0.1,0.015848931924611127,1,0.30815400699975726
75,198,FarLowWide,0.03,0.25,0.5,0.01995262314968879,0,0.30501529300090624
75,199,ThreeLinesControl,0.0,0.0,0.1,0.012589254117941666,0,0.6871602840001287
75,200,FarHighWide,0.5,0.25,0.03,0.009999999999999997,0,0.5095253969993792
75,201,FarLowWide,0.03,0.25,0.5,0.025118864315095794,1,0.47556365600030404
75,202,FarLowWide,0.03,0.25,0.5,0.01995262314968879,1,0.537889613000516
75,203,FarLowNarrow_null,0.1,0.15,0.2,0.07943282347242815,1,0.32042934899982356
75,204,FarLowWide,0.03,0.25,0.5,0.015848931924611127,0,0.21403922100034833
75,205,ThreeLinesControl_null,0.0,0.0,0.1,0.05011872336272722,0,0.508652552998683
75,206,Constant,0.1,0.1,0.1,0.012589254117941666,1,0.2828631720003614
75,207,Constant_null,0.1,0.1,0.1,0.06309573444801932,0,0.25002624499938975
75,208,FarHighNarrow,0.2,0.15,0.1,0.012589254117941666,0,0.3087778180015448
75,209,FarHighNarrow,0.2,0.15,0.1,0.015848931924611127,0,0.2352562689993647
75,210,FarLowWide,0.03,0.25,0.5,0.01995262314968879,0,0.48614821699993627
75,211,FarHighNarrow,0.2,0.15,0.1,0.01995262314968879,1,0.46002991299974383
75,212,FarLowNarrow,0.1,0.15,0.2,0.01995262314968879,1,0.4333710009996139
75,213,FarHighWide_null,0.5,0.25,0.03,0.06309573444801932,1,0.4692897349996201
75,214,FarLowWide,0.03,0.25,0.5,0.025118864315095794,1,0.5636825040000986
75,215,FarHighWide,0.5,0.25,0.03,0.012589254117941668,0,0.5136868469999172
75,216,ThreeLinesControl,0.0,0.0,0.1,0.015848931924611127,1,0.6958119230002922
75,217,FarLowNarrow_null,0.1,0.15,0.2,0.06309573444801932,1,0.4301300089991855
75,218,Constant,0.1,0.1,0.1,0.009999999999999995,0,0.5321284769997874
75,219,FarHighWide,0.5,0.25,0.03,0.01584893192461113,0,0.7215391169993381
75,220,ThreeLinesControl,0.0,0.0,0.1,0.012589254117941666,0,0.6471423969996977
75,221,ThreeLinesControl,0.0,0.0,0.1,0.015848931924611127,1,0.3964561489992775
75,222,FarLowNarrow,0.1,0.15,0.2,0.015848931924611127,1,0.6506940760009456
75,223,ThreeLinesControl,0.0,0.0,0.1,0.012589254117941666,1,0.5943059960009123
75,224,FarHighNarrow,0.2,0.15,0.1,0.015848931924611127,1,0.6932214599983126
75,225,ThreeLinesControl,0.0,0.0,0.1,0.009999999999999995,0,0.6431344659995375
75,226,Constant,0.1,0.1,0.1,0.012589254117941666,1,0.8895358250010759
75,227,FarLowNarrow,0.1,0.15,0.2,0.012589254117941666,0,0.7244235400012258
75,228,FarHighWide,0.5,0.25,0.03,0.019952623149688792,1,0.9616531230003602
75,229,FarHighNarrow,0.2,0.15,0.1,0.012589254117941666,1,0.566866184999526
75,230,FarLowWide,0.03,0.25,0.5,0.01995262314968879,0,0.9718489100014267
75,231,ThreeLinesControl,0.0,0.0,0.1,0.012589254117941666,0,0.5701490950013977
75,232,Constant,0.1,0.1,0.1,0.009999999999999995,0,0.47204692200102727
75,233,FarLowNarrow,0.1,0.15,0.2,0.015848931924611127,1,0.5186275619998924
75,234,FarLowNarrow,0.1,0.15,0.2,0.012589254117941666,0,0.6685479450006824
75,235,FarHighNarrow,0.2,0.15,0.1,0.009999999999999995,0,0.6268698070016399
75,236,Constant,0.1,0.1,0.1,0.012589254117941666,1,0.368552940999507
75,237,FarLowNarrow_null,0.1,0.15,0.2,0.05011872336272722,1,0.3338562489989272
75,238,Constant,0.1,0.1,0.1,0.009999999999999995,1,0.724392378999255
75,239,FarHighWide,0.5,0.25,0.03,0.01584893192461113,1,0.33969349799917836
75,240,ThreeLinesControl,0.0,0.0,0.1,0.015848931924611127,1,1.186668902000747
75,241,FarLowNarrow,0.1,0.15,0.2,0.015848931924611127,0,0.4407228830004897
75,242,Constant,0.1,0.1,0.1,0.00794328234724281,0,0.5018219459998363
75,243,Constant,0.1,0.1,0.1,0.009999999999999995,1,0.3404572769995866
75,244,ThreeLinesControl,0.0,0.0,0.1,0.012589254117941666,0,0.722501401000045
75,245,FarHighNarrow,0.2,0.15,0.1,0.012589254117941666,0,0.6162683389993617
75,246,ThreeLinesControl,0.0,0.0,0.1,0.015848931924611127,1,0.7587835609992908
75,247,FarHighNarrow_null,0.2,0.15,0.1,0.1,1,0.5477027359993372
75,248,FarLowNarrow,0.1,0.15,0.2,0.01995262314968879,1,0.7039716379986203
75,249,FarLowWide,0.03,0.25,0.5,0.025118864315095794,1,0.5340187100009643
75,250,FarHighNarrow,0.2,0.15,0.1,0.015848931924611127,0,99
75,251,FarLowNarrow,0.1,0.15,0.2,0.015848931924611127,0,0.6312578809993283
75,252,ThreeLinesControl,0.0,0.0,0.1,0.012589254117941666,1,0.35758496100061166
75,253,FarLowWide,0.03,0.25,0.5,0.01995262314968879,0,0.4996265300014784
75,254,FarLowNarrow,0.1,0.15,0.2,0.01995262314968879,1,0.5995916419997229
75,255,Constant,0.1,0.1,0.1,0.00794328234724281,0,0.4218404620005458
75,256,FarHighWide,0.5,0.25,0.03,0.012589254117941668,0,0.5399844099993061
75,257,FarHighWide,0.5,0.25,0.03,0.01584893192461113,0,0.4330752999994729
75,258,FarLowWide,0.03,0.25,0.5,0.025118864315095794,1,0.31137384999965434
75,259,ThreeLinesControl,0.0,0.0,0.1,0.009999999999999995,0,0.47065685100096744
75,260,ThreeLinesControl,0.0,0.0,0.1,0.012589254117941666,0,0.3968701840003632
75,261,FarLowNarrow,0.1,0.15,0.2,0.015848931924611127,1,0.40261699599977874
75,262,ThreeLinesControl,0.0,0.0,0.1,0.015848931924611127,0,0.4239497590006067
75,263,Constant,0.1,0.1,0.1,0.009999999999999995,1,1.1581546530014748
75,264,FarHighWide,0.5,0.25,0.03,0.019952623149688792,1,0.5392785309995816
75,265,FarHighWide,0.5,0.25,0.03,0.01584893192461113,1,0.3592809069996292
75,266,FarLowWide,0.03,0.25,0.5,0.01995262314968879,0,0.4694085459996131
75,267,ThreeLinesControl_null,0.0,0.0,0.1,0.06309573444801932,1,0.7997665419989062
75,268,ThreeLinesControl_null,0.0,0.0,0.1,0.05011872336272722,1,0.4294855070002086
75,269,FarLowWide_null,0.03,0.25,0.5,0.06309573444801932,1,0.6039611800006242
75,270,Constant,0.1,0.1,0.1,0.00794328234724281,0,0.6010350010001275
75,271,FarLowNarrow,0.1,0.15,0.2,0.012589254117941666,1,0.6712873249998665
75,272,FarHighNarrow,0.2,0.15,0.1,0.01995262314968879,1,0.4295168899989221
75,273,ThreeLinesControl,0.0,0.0,0.1,0.01995262314968879,1,0.2904428570000164
75,274,FarHighWide_null,0.5,0.25,0.03,0.05011872336272722,1,0.5927431180007261
75,275,FarHighNarrow,0.2,0.15,0.1,0.015848931924611127,0,0.27071812900067016
75,276,Constant,0.1,0.1,0.1,0.009999999999999995,0,0.5009310189998359
75,277,FarLowWide,0.03,0.25,0.5,0.025118864315095794,1,0.2765307940007915
75,278,FarHighWide,0.5,0.25,0.03,0.012589254117941668,1,0.15332694400058244
75,279,FarHighNarrow,0.2,0.15,0.1,0.01995262314968879,1,0.7342021709991968
75,280,FarHighNarrow_null,0.2,0.15,0.1,0.07943282347242815,1,0.4216872830002103
75,281,FarHighNarrow,0.2,0.15,0.1,0.015848931924611127,0,0.2808491550003964
75,282,FarLowNarrow,0.1,0.15,0.2,0.009999999999999995,0,0.39093438199961383
75,283,ThreeLinesControl,0.0,0.0,0.1,0.015848931924611127,0,0.45804274900001474
75,284,ThreeLinesControl_null,0.0,0.0,0.1,0.03981071705534971,1,0.36832589600089705
75,285,Constant,0.1,0.1,0.1,0.012589254117941666,0,0.574406044999705
75,286,FarHighNarrow,0.2,0.15,0.1,0.01995262314968879,0,0.5382691600007092
75,287,FarLowWide,0.03,0.25,0.5,0.01995262314968879,0,0.7043480350002937
75,288,ThreeLinesControl_null,0.0,0.0,0.1,0.031622776601683784,1,0.4708402460000798
75,289,FarLowNarrow,0.1,0.15,0.2,0.012589254117941666,0,0.4847339439984353
75,290,FarHighNarrow,0.2,0.15,0.1,0.025118864315095794,1,0.522919102000742
75,291,FarHighNarrow,0.2,0.15,0.1,0.01995262314968879,1,0.32149620199925266
75,292,FarHighWide,0.5,0.25,0.03,0.009999999999999997,0,0.5594155509988923
75,293,FarHighNarrow,0.2,0.15,0.1,0.015848931924611127,0,0.918765065000116
75,294,ThreeLinesControl_null,0.0,0.0,0.1,0.02511886431509579,1,0.730809507000231
75,295,FarHighNarrow,0.2,0.15,0.1,0.01995262314968879,1,0.609025259000191
75,296,ThreeLinesControl_null,0.0,0.0,0.1,0.01995262314968879,1,0.3669458570002462
75,297,FarLowNarrow,0.1,0.15,0.2,0.015848931924611127,1,0.5382192699998996
75,298,ThreeLinesControl,0.0,0.0,0.1,0.01995262314968879,1,0.6720608180003182
75,299,FarLowNarrow_null,0.1,0.15,0.2,0.03981071705534971,1,0.629504595999606
75,300,ThreeLinesControl,0.0,0.0,0.1,0.015848931924611127,1,0.39354457199988246
75,301,FarHighNarrow_null,0.2,0.15,0.1,0.06309573444801932,1,0.382502291999117
75,302,Constant,0.1,0.1,0.1,0.015848931924611127,0,0.2127332860000024
75,303,Constant,0.1,0.1,0.1,0.01995262314968879,1,0.5142816219995439
75,304,FarLowNarrow,0.1,0.15,0.2,0.012589254117941666,1,0.3841622569998435
75,305,FarLowWide,0.03,0.25,0.5,0.025118864315095794,1,0.31812885100043786
75,306,FarLowNarrow,0.1,0.15,0.2,0.009999999999999995,0,0.4605559980009275
75,307,FarHighWide,0.5,0.25,0.03,0.012589254117941668,1,0.5867244680011936
75,308,ThreeLinesControl,0.0,0.0,0.1,0.012589254117941666,1,0.4250720590007404
75,309,FarHighNarrow,0.2,0.15,0.1,0.015848931924611127,1,0.5036567520000972
75,310,FarLowNarrow,0.1,0.15,0.2,0.012589254117941666,0,0.5424204750015633
75,311,FarLowWide,0.03,0.25,0.5,0.01995262314968879,0,0.4502801279995765
75,312,FarLowNarrow,0.1,0.15,0.2,0.015848931924611127,1,0.5044507389993669
75,313,FarLowNarrow,0.1,0.15,0.2,0.012589254117941666,1,0.29143585200108646
75,314,FarHighWide,0.5,0.25,0.03,0.009999999999999997,1,0.4175908469987917
75,315,ThreeLinesControl,0.0,0.0,0.1,0.009999999999999995,0,0.3674630339992291
75,316,ThreeLinesControl,0.0,0.0,0.1,0.012589254117941666,0,0.38688176100004057
75,317,ThreeLinesControl,0.0,0.0,0.1,0.015848931924611127,1,0.4650674260010419
75,318,FarLowNarrow,0.1,0.15,0.2,0.009999999999999995,1,0.48625093899863714
75,319,FarHighWide,0.5,0.25,0.03,0.007943282347242812,0,0.5882530590006354
75,320,Constant,0.1,0.1,0.1,0.015848931924611127,0,0.37059399300051155
75,321,FarLowNarrow,0.1,0.15,0.2,0.00794328234724281,0,0.26480027500110737
75,322,ThreeLinesControl,0.0,0.0,0.1,0.012589254117941666,1,0.3179233369992289
75,323,ThreeLinesControl,0.0,0.0,0.1,0.009999999999999995,0,0.4920785900012561
75,324,FarHighWide,0.5,0.25,0.03,0.009999999999999997,1,0.4184612079989165
75,325,FarHighWide,0.5,0.25,0.03,0.007943282347242812,0,0.6096533449999697
75,326,FarLowWide,0.03,0.25,0.5,0.025118864315095794,1,0.49558666000120866
75,327,FarLowNarrow,0.1,0.15,0.2,0.009999999999999995,1,0.3005381880011555
75,328,FarLowNarrow,0.1,0.15,0.2,0.00794328234724281,0,0.2257516930003476
75,329,FarLowNarrow,0.1,0.15,0.2,0.009999999999999995,0,0.30367451700112724
75,330,FarLowWide,0.03,0.25,0.5,0.01995262314968879,0,0.24317887100005464
75,331,Constant,0.1,0.1,0.1,0.01995262314968879,1,0.5051455129996612
75,332,FarLowNarrow,0.1,0.15,0.2,0.012589254117941666,0,0.6360183679989859
75,333,FarHighWide,0.5,0.25,0.03,0.009999999999999997,1,0.7541776130001381
75,334,FarLowNarrow_null,0.1,0.15,0.2,0.031622776601683784,1,0.4167813499989279
75,335,FarLowNarrow_null,0.1,0.15,0.2,0.02511886431509579,1,0.398732335999739
75,336,FarHighNarrow,0.2,0.15,0.1,0.012589254117941666,0,0.9558942730000126
75,337,FarLowNarrow,0.1,0.15,0.2,0.015848931924611127,0,0.6900412840004719
75,338,FarHighWide,0.5,0.25,0.03,0.007943282347242812,0,1.168271554999592
75,339,FarLowWide,0.03,0.25,0.5,0.025118864315095794,1,0.6384702310006105
75,340,FarHighWide,0.5,0.25,0.03,0.009999999999999997,0,0.5006880880009703
75,341,Constant,0.1,0.1,0.1,0.015848931924611127,1,0.6428173439999227
75,342,FarLowNarrow,0.1,0.15,0.2,0.01995262314968879,1,0.6661161809988698
75,343,FarHighWide,0.5,0.25,0.03,0.012589254117941668,1,1.0851106350000919
75,344,FarHighWide,0.5,0.25,0.03,0.009999999999999997,1,0.5950266199997714
75,345,FarHighNarrow,0.2,0.15,0.1,0.015848931924611127,0,0.5772865620001539
75,346,FarLowWide,0.03,0.25,0.5,0.01995262314968879,0,0.4444295810008043
75,347,FarHighNarrow_null,0.2,0.15,0.1,0.05011872336272722,0,0.4018826049996278
75,348,Constant,0.1,0.1,0.1,0.012589254117941666,0,0.6132204829991679
75,349,FarLowNarrow,0.1,0.15,0.2,0.015848931924611127,0,0.6599424939995515
75,350,FarLowNarrow,0.1,0.15,0.2,0.01995262314968879,0,0.577965337999558
75,351,Constant,0.1,0.1,0.1,0.015848931924611127,1,0.5911394689992449
75,352,FarHighNarrow,0.2,0.15,0.1,0.01995262314968879,1,0.8933579569984431
75,353,ThreeLinesControl,0.0,0.0,0.1,0.012589254117941666,0,0.48353758700068283
75,354,FarHighWide,0.5,0.25,0.03,0.007943282347242812,0,1.2177702820008562
75,355,FarHighNarrow,0.2,0.15,0.1,0.015848931924611127,0,0.8716489159996854
75,356,FarHighNarrow,0.2,0.15,0.1,0.01995262314968879,0,0.4540007939995121
75,357,FarHighWide_null,0.5,0.25,0.03,0.03981071705534971,1,0.6288220679998631
75,358,Constant,0.1,0.1,0.1,0.012589254117941666,0,0.8904481629997463
75,359,FarLowNarrow,0.1,0.15,0.2,0.025118864315095794,1,0.5583807619987056
75,360,Constant,0.1,0.1,0.1,0.015848931924611127,0,0.6498479120000411
75,361,FarHighWide,0.5,0.25,0.03,0.009999999999999997,0,0.33580502000040724
75,362,ThreeLinesControl,0.0,0.0,0.1,0.015848931924611127,0,0.6053129949996219
75,363,ThreeLinesControl,0.0,0.0,0.1,0.01995262314968879,1,0.619165043999601
75,364,FarHighNarrow_null,0.2,0.15,0.1,0.06309573444801932,1,0.5052304410000943
75,365,FarHighWide,0.5,0.25,0.03,0.012589254117941668,0,0.6318254609996075
75,366,FarHighWide,0.5,0.25,0.03,0.01584893192461113,1,0.390480927999306
75,367,Constant,0.1,0.1,0.1,0.01995262314968879,1,0.324530568001137
75,368,FarHighWide,0.5,0.25,0.03,0.012589254117941668,1,0.49586698100029025
75,369,FarLowWide,0.03,0.25,0.5,0.025118864315095794,1,0.4461077630003274
75,370,Constant_null,0.1,0.1,0.1,0.07943282347242814,1,0.4888772370013612
75,371,Constant,0.1,0.1,0.1,0.015848931924611127,1,0.5354642140009673
75,372,FarHighWide,0.5,0.25,0.03,0.009999999999999997,0,0.5893142850000004
75,373,ThreeLinesControl,0.0,0.0,0.1,0.015848931924611127,1,0.7923851600007765
75,374,FarHighNarrow,0.2,0.15,0.1,0.025118864315095794,1,0.6783690009997372
75,375,ThreeLinesControl,0.0,0.0,0.1,0.012589254117941666,0,0.6289909590013849
75,376,FarLowNarrow,0.1,0.15,0.2,0.01995262314968879,1,0.5467636119992676
75,377,Constant,0.1,0.1,0.1,0.012589254117941666,0,0.5532325669992133
75,378,Constant,0.1,0.1,0.1,0.015848931924611127,1,0.5195867860002181
75,379,FarHighNarrow,0.2,0.15,0.1,0.01995262314968879,1,0.42940616499981843
75,380,FarHighWide,0.5,0.25,0.03,0.012589254117941668,0,0.4908610860002227
75,381,FarHighWide,0.5,0.25,0.03,0.01584893192461113,1,0.41011640100077784
75,382,FarLowNarrow,0.1,0.15,0.2,0.015848931924611127,0,0.32825114099978236
75,383,FarHighNarrow,0.2,0.15,0.1,0.015848931924611127,0,0.3505167729999812
75,384,ThreeLinesControl,0.0,0.0,0.1,0.015848931924611127,0,0.3621577440007968
75,385,FarLowWide,0.03,0.25,0.5,0.01995262314968879,1,0.3434469950007042
75,386,FarLowWide,0.03,0.25,0.5,0.015848931924611127,1,0.2695002199998271
75,387,ThreeLinesControl,0.0,0.0,0.1,0.01995262314968879,0,0.4887678370014328
75,388,ThreeLinesControl,0.0,0.0,0.1,0.025118864315095794,1,0.47078141099882487
75,389,FarHighWide,0.5,0.25,0.03,0.012589254117941668,0,0.475116932999299
75,390,ThreeLinesControl,0.0,0.0,0.1,0.01995262314968879,1,0.9130746419996285
75,391,FarHighNarrow,0.2,0.15,0.1,0.01995262314968879,1,0.6712369329998182
75,392,FarLowWide,0.03,0.25,0.5,0.012589254117941666,0,0.38829788099974394
75,393,FarLowWide_null,0.03,0.25,0.5,0.05011872336272722,1,0.3785562299999583
75,394,FarLowWide,0.03,0.25,0.5,0.015848931924611127,0,0.3208362360001047
75,395,FarLowWide,0.03,0.25,0.5,0.01995262314968879,1,0.5587685280006554
75,396,FarLowNarrow,0.1,0.15,0.2,0.01995262314968879,1,0.6054061089998868
75,397,FarHighNarrow,0.2,0.15,0.1,0.015848931924611127,1,0.3459195599989471
75,398,FarLowWide,0.03,0.25,0.5,0.015848931924611127,0,0.5213120039989008
75,399,FarLowWide,0.03,0.25,0.5,0.01995262314968879,1,0.42321351099963067
75,400,ThreeLinesControl,0.0,0.0,0.1,0.015848931924611127,1,0.49849516399990534
75,401,FarHighNarrow,0.2,0.15,0.1,0.012589254117941666,1,0.5606887270005245
75,402,FarLowWide,0.03,0.25,0.5,0.015848931924611127,1,0.6618266549994587
75,403,FarLowWide,0.03,0.25,0.5,0.012589254117941666,0,0.5052309879993118
75,404,FarLowWide_null,0.03,0.25,0.5,0.03981071705534971,1,0.5351386429992999
75,405,FarLowWide,0.03,0.25,0.5,0.015848931924611127,1,1.0133336359995155
75,406,ThreeLinesControl,0.0,0.0,0.1,0.012589254117941666,1,0.7531318679994001
75,407,FarHighNarrow,0.2,0.15,0.1,0.009999999999999995,1,0.9356010890005564
75,408,Constant,0.1,0.1,0.1,0.012589254117941666,0,0.4855943759994261
75,409,FarHighWide,0.5,0.25,0.03,0.01584893192461113,1,0.7476784009995754
75,410,Constant,0.1,0.1,0.1,0.015848931924611127,1,0.4581630100001348
75,411,FarLowWide_null,0.03,0.25,0.5,0.031622776601683784,1,0.8713141900007031
75,412,FarHighNarrow,0.2,0.15,0.1,0.00794328234724281,0,0.733462325999426
75,413,FarHighNarrow,0.2,0.15,0.1,0.009999999999999995,0,0.6197007570008282
75,414,FarHighNarrow,0.2,0.15,0.1,0.012589254117941666,0,0.46482392700090713
75,415,FarHighWide,0.5,0.25,0.03,0.012589254117941668,1,0.6641043439994974
75,416,FarLowNarrow,0.1,0.15,0.2,0.015848931924611127,1,0.3948379890007345
75,417,FarLowWide_null,0.03,0.25,0.5,0.02511886431509579,1,0.34522377499888535
75,418,Constant,0.1,0.1,0.1,0.012589254117941666,1,0.6782353830003558
75,419,ThreeLinesControl,0.0,0.0,0.1,0.009999999999999995,0,0.62535121899964
75,420,FarHighNarrow_null,0.2,0.15,0.1,0.05011872336272722,1,1.239573016999202
75,421,FarLowNarrow,0.1,0.15,0.2,0.012589254117941666,1,0.8376388910000969
75,422,ThreeLinesControl_null,0.0,0.0,0.1,0.015848931924611127,1,0.4498575299985532
75,423,FarLowNarrow,0.1,0.15,0.2,0.009999999999999995,0,0.3920495980000851
75,424,FarLowNarrow,0.1,0.15,0.2,0.012589254117941666,0,0.29426723799952015
75,425,Constant,0.1,0.1,0.1,0.009999999999999995,1,0.4843864719987323
75,426,FarLowWide,0.03,0.25,0.5,0.012589254117941666,1,0.41061130999878515
75,427,ThreeLinesControl,0.0,0.0,0.1,0.012589254117941666,0,0.46441757600041456
75,428,Constant,0.1,0.1,0.1,0.00794328234724281,0,0.5268533840007876
75,429,FarLowNarrow,0.1,0.15,0.2,0.015848931924611127,1,0.5409241540000949
75,430,Constant,0.1,0.1,0.1,0.009999999999999995,1,0.3539242769984412
75,431,FarHighWide,0.5,0.25,0.03,0.009999999999999997,0,0.6081467710009747
75,432,FarHighWide,0.5,0.25,0.03,0.012589254117941668,0,0.5494785709997814
75,433,FarLowNarrow,0.1,0.15,0.2,0.012589254117941666,0,0.4816569390004588
75,434,Constant,0.1,0.1,0.1,0.00794328234724281,0,0.35847388399997726
75,435,FarHighNarrow,0.2,0.15,0.1,0.015848931924611127,0,99
75,436,FarLowWide,0.03,0.25,0.5,0.009999999999999995,0,0.36796130999937304
75,437,FarLowNarrow,0.1,0.15,0.2,0.015848931924611127,1,0.35791438200067205
75,438,FarHighNarrow,0.2,0.15,0.1,0.01995262314968879,1,0.6911839849999524
75,439,Constant,0.1,0.1,0.1,0.009999999999999995,1,0.8174172809995071
75,440,FarHighWide,0.5,0.25,0.03,0.01584893192461113,1,0.6226675599991722
75,441,ThreeLinesControl_null,0.0,0.0,0.1,0.012589254117941666,1,0.5245295509994321
75,442,FarLowWide,0.03,0.25,0.5,0.012589254117941666,0,0.44299728899932234
75,443,ThreeLinesControl,0.0,0.0,0.1,0.015848931924611127,1,0.6728236319995631
75,444,FarHighWide,0.5,0.25,0.03,0.012589254117941668,0,0.6405593729996326
75,445,ThreeLinesControl,0.0,0.0,0.1,0.012589254117941666,0,0.46108567800001765
75,446,FarLowWide,0.03,0.25,0.5,0.015848931924611127,1,0.40199856999970507
75,447,Constant,0.1,0.1,0.1,0.00794328234724281,1,1.2006976089996897
75,448,FarHighNarrow,0.2,0.15,0.1,0.015848931924611127,1,0.5599786740003765
75,449,FarHighNarrow,0.2,0.15,0.1,0.012589254117941666,1,0.5386983410007815
75,450,Constant,0.1,0.1,0.1,0.0063095734448019285,0,0.5451807709996501
75,451,FarLowNarrow,0.1,0.15,0.2,0.012589254117941666,1,0.6950402009988466
75,452,FarHighWide,0.5,0.25,0.03,0.01584893192461113,1,0.8345332050012075
75,453,FarHighNarrow,0.2,0.15,0.1,0.009999999999999995,0,0.7765884250002273
75,454,ThreeLinesControl,0.0,0.0,0.1,0.015848931924611127,1,1.0605495830004656
75,455,FarLowWide,0.03,0.25,0.5,0.012589254117941666,0,0.7069862999996985
75,456,FarHighWide,0.5,0.25,0.03,0.012589254117941668,0,0.7370664509999187
75,457,FarHighNarrow,0.2,0.15,0.1,0.012589254117941666,0,99
75,458,ThreeLinesControl,0.0,0.0,0.1,0.012589254117941666,0,0.6771954560008453
75,459,FarLowNarrow,0.1,0.15,0.2,0.009999999999999995,0,0.643643338999027
75,460,FarHighNarrow,0.2,0.15,0.1,0.015848931924611127,1,0.5137767269989126
75,461,Constant,0.1,0.1,0.1,0.00794328234724281,1,0.4891570759991737
75,462,Constant,0.1,0.1,0.1,0.0063095734448019285,0,0.38910196399956476
75,463,FarLowNarrow,0.1,0.15,0.2,0.012589254117941666,0,0.42711414600125863
75,464,FarLowNarrow,0.1,0.15,0.2,0.015848931924611127,0,0.5690923760012083
75,465,FarHighNarrow,0.2,0.15,0.1,0.012589254117941666,0,0.6124617040004523
75,466,FarHighNarrow,0.2,0.15,0.1,0.015848931924611127,1,0.3623911969989422
75,467,FarHighWide,0.5,0.25,0.03,0.01584893192461113,1,0.5036386980009411
75,468,FarHighWide,0.5,0.25,0.03,0.012589254117941668,1,0.5465413679994526
75,469,FarHighWide,0.5,0.25,0.03,0.009999999999999997,1,0.4087771470003645
75,470,FarLowNarrow,0.1,0.15,0.2,0.01995262314968879,1,0.34296157199969457
75,471,FarLowWide_null,0.03,0.25,0.5,0.01995262314968879,1,0.32417937599893776
75,472,Constant,0.1,0.1,0.1,0.00794328234724281,0,0.6185151260015118
75,473,FarLowNarrow,0.1,0.15,0.2,0.015848931924611127,1,0.44049670300046273
75,474,ThreeLinesControl_null,0.0,0.0,0.1,0.009999999999999995,1,0.4387160669994046
75,475,FarLowWide,0.03,0.25,0.5,0.015848931924611127,0,0.32476923700050975
75,476,FarLowNarrow_null,0.1,0.15,0.2,0.01995262314968879,1,0.3467387170003349
75,477,Constant,0.1,0.1,0.1,0.009999999999999995,0,0.28952424700037227
75,478,FarHighNarrow_null,0.2,0.15,0.1,0.03981071705534971,1,0.3363127450011234
75,479,ThreeLinesControl,0.0,0.0,0.1,0.015848931924611127,0,0.3250886219993845
75,480,FarHighWide,0.5,0.25,0.03,0.007943282347242812,0,1.030745227000807
75,481,Constant,0.1,0.1,0.1,0.012589254117941666,0,0.3409160060000431
75,482,ThreeLinesControl,0.0,0.0,0.1,0.01995262314968879,0,0.24286452600063058
75,483,ThreeLinesControl,0.0,0.0,0.1,0.025118864315095794,0,0.32632802599982824
75,484,FarLowNarrow,0.1,0.15,0.2,0.012589254117941666,0,0.3083498280011554
75,485,FarHighWide,0.5,0.25,0.03,0.009999999999999997,0,0.5385279759993864
75,486,FarHighNarrow,0.2,0.15,0.1,0.012589254117941666,0,0.30946663899885607
75,487,FarHighNarrow,0.2,0.15,0.1,0.015848931924611127,0,0.24390556200160063
75,488,FarLowWide,0.03,0.25,0.5,0.01995262314968879,0,0.3848958529997617
75,489,FarLowNarrow,0.1,0.15,0.2,0.015848931924611127,1,0.5831342040000891
75,490,ThreeLinesControl,0.0,0.0,0.1,0.031622776601683784,1,0.3892890669994813
75,491,FarHighWide,0.5,0.25,0.03,0.012589254117941668,0,0.47537084000032337
75,492,ThreeLinesControl,0.0,0.0,0.1,0.02511886431509579,1,0.7686111060011172
75,493,FarLowNarrow,0.1,0.15,0.2,0.012589254117941666,0,0.430563109999639
75,494,FarLowNarrow,0.1,0.15,0.2,0.015848931924611127,1,0.5651899019994744
75,495,FarHighWide,0.5,0.25,0.03,0.01584893192461113,0,0.8358521799982555
75,496,FarLowWide,0.03,0.25,0.5,0.025118864315095794,1,0.7474310199995671
75,497,Constant,0.1,0.1,0.1,0.015848931924611127,1,0.7353164329997526
75,498,FarHighNarrow,0.2,0.15,0.1,0.01995262314968879,0,99
75,499,FarHighNarrow,0.2,0.15,0.1,0.025118864315095794,1,0.6714047969999228
75,500,FarHighWide,0.5,0.25,0.03,0.019952623149688792,1,0.533660687999145
75,501,FarLowWide,0.03,0.25,0.5,0.01995262314968879,0,0.3557228350000514
75,502,ThreeLinesControl,0.0,0.0,0.1,0.01995262314968879,1,0.6949303900000814
75,503,FarLowNarrow,0.1,0.15,0.2,0.012589254117941666,0,0.37345375799850444
75,504,FarHighNarrow,0.2,0.15,0.1,0.01995262314968879,1,0.3634430469992367
75,505,FarLowNarrow,0.1,0.15,0.2,0.015848931924611127,1,0.5694895569995424
75,506,ThreeLinesControl,0.0,0.0,0.1,0.015848931924611127,1,0.39876156200080004
75,507,FarLowWide_null,0.03,0.25,0.5,0.015848931924611127,1,0.3404760809989966
75,508,FarHighWide,0.5,0.25,0.03,0.01584893192461113,0,1.050905669999338
75,509,Constant,0.1,0.1,0.1,0.012589254117941666,1,0.48917008499847725
75,510,FarHighWide,0.5,0.25,0.03,0.019952623149688792,1,0.3515649710006983
75,511,FarLowWide,0.03,0.25,0.5,0.025118864315095794,0,0.4944993289991544
75,512,FarLowWide,0.03,0.25,0.5,0.031622776601683784,1,0.43676949700056866
75,513,FarHighWide,0.5,0.25,0.03,0.01584893192461113,0,99
75,514,FarHighWide,0.5,0.25,0.03,0.019952623149688792,0,0.5589152590000595
75,515,FarHighWide,0.5,0.25,0.03,0.025118864315095798,1,0.49003869100124575
75,516,Constant,0.1,0.1,0.1,0.009999999999999995,0,0.632667711999602
75,517,FarLowNarrow,0.1,0.15,0.2,0.012589254117941666,0,0.3499323779997212
75,518,FarHighNarrow_null,0.2,0.15,0.1,0.031622776601683784,1,0.33751723999921524
75,519,ThreeLinesControl,0.0,0.0,0.1,0.012589254117941666,1,0.5277284530002362
75,520,FarHighNarrow,0.2,0.15,0.1,0.015848931924611127,0,0.3244510829990759
75,521,Constant,0.1,0.1,0.1,0.012589254117941666,1,0.714787446999253
75,522,FarHighWide,0.5,0.25,0.03,0.019952623149688792,0,99
75,523,FarLowWide_null,0.03,0.25,0.5,0.012589254117941666,0,0.31920208300107333
75,524,Constant_null,0.1,0.1,0.1,0.06309573444801932,1,0.6213974139991478
75,525,Constant,0.1,0.1,0.1,0.009999999999999995,0,0.4504879650012299
75,526,FarHighNarrow,0.2,0.15,0.1,0.01995262314968879,0,0.5219257230000949
75,527,FarLowWide,0.03,0.25,0.5,0.02511886431509579,1,0.38388069400025415
75,528,FarLowWide,0.03,0.25,0.5,0.01995262314968879,1,0.6468948060010007
75,529,FarLowWide_null,0.03,0.25,0.5,0.015848931924611127,1,0.48991226500038465
75,530,FarHighWide,0.5,0.25,0.03,0.025118864315095798,0,1.2482085190004
75,531,FarLowWide,0.03,0.25,0.5,0.015848931924611127,0,0.7582321289992251
75,532,FarLowNarrow,0.1,0.15,0.2,0.015848931924611127,0,0.6416000619992701
75,533,Constant,0.1,0.1,0.1,0.012589254117941666,0,0.423528166998949
75,534,FarLowNarrow,0.1,0.15,0.2,0.01995262314968879,0,0.4346346780002932
75,535,FarHighWide,0.5,0.25,0.03,0.03162277660168379,1,0.3768469280003046
75,536,Constant,0.1,0.1,0.1,0.015848931924611127,0,0.614932847000091
75,537,FarHighNarrow,0.2,0.15,0.1,0.025118864315095794,0,0.34926644200095325
75,538,ThreeLinesControl,0.0,0.0,0.1,0.009999999999999995,0,0.3073513639992598
75,539,Constant,0.1,0.1,0.1,0.01995262314968879,1,0.48836987700087775
75,540,Constant,0.1,0.1,0.1,0.015848931924611127,1,0.36657960200136586
75,541,Constant,0.1,0.1,0.1,0.012589254117941666,0,0.5007671429993934
75,542,FarLowNarrow,0.1,0.15,0.2,0.025118864315095794,1,0.6270073399991816
75,543,Constant,0.1,0.1,0.1,0.015848931924611127,1,0.5452952350005944
75,544,FarLowWide_null,0.03,0.25,0.5,0.012589254117941666,1,0.3604523859994515
75,545,FarHighWide,0.5,0.25,0.03,0.025118864315095798,0,0.3874609039994539
75,546,FarLowNarrow,0.1,0.15,0.2,0.01995262314968879,0,0.5298115710011189
75,547,FarLowWide,0.03,0.25,0.5,0.01995262314968879,0,0.6076558479999221
75,548,FarLowNarrow,0.1,0.15,0.2,0.025118864315095794,1,0.28289087700068194
75,549,FarLowWide,0.03,0.25,0.5,0.025118864315095794,1,0.2490084470009606
75,550,FarHighWide,0.5,0.25,0.03,0.03162277660168379,1,0.19767174800108478
75,551,FarLowNarrow,0.1,0.15,0.2,0.01995262314968879,0,0.666205600999092
75,552,FarHighNarrow,0.2,0.15,0.1,0.031622776601683784,1,0.4324725589995069
75,553,FarLowWide,0.03,0.25,0.5,0.01995262314968879,1,0.3024559049990785
75,554,FarHighWide,0.5,0.25,0.03,0.025118864315095798,1,0.4047714919997816
75,555,FarLowNarrow,0.1,0.15,0.2,0.025118864315095794,1,0.29897832899951027
75,556,FarHighWide,0.5,0.25,0.03,0.019952623149688792,1,0.36007715000050666
75,557,ThreeLinesControl,0.0,0.0,0.1,0.012589254117941666,0,0.2861109440000291
75,558,Constant,0.1,0.1,0.1,0.012589254117941666,1,0.5724488830001064
75,559,FarHighNarrow_null,0.2,0.15,0.1,0.02511886431509579,1,0.4253289450007287
75,560,FarHighNarrow,0.2,0.15,0.1,0.02511886431509579,1,0.4730721559990343
75,561,Constant,0.1,0.1,0.1,0.009999999999999995,1,0.4362142199988739
75,562,ThreeLinesControl,0.0,0.0,0.1,0.015848931924611127,0,0.8830547540001135
75,563,FarHighNarrow_null,0.2,0.15,0.1,0.01995262314968879,1,0.5359051380000892
75,564,ThreeLinesControl_null,0.0,0.0,0.1,0.00794328234724281,1,0.5393028700000286
75,565,FarHighNarrow,0.2,0.15,0.1,0.01995262314968879,1,0.7776286249991244
75,566,FarLowNarrow,0.1,0.15,0.2,0.01995262314968879,1,0.4876774829990609
75,567,ThreeLinesControl,0.0,0.0,0.1,0.01995262314968879,1,0.34789262100093765
75,568,ThreeLinesControl,0.0,0.0,0.1,0.015848931924611127,1,0.43378230599955714
75,569,FarLowNarrow,0.1,0.15,0.2,0.015848931924611127,0,0.4628947490000428
75,570,FarLowWide_null,0.03,0.25,0.5,0.009999999999999995,1,0.3014513070011162
75,571,FarLowWide,0.03,0.25,0.5,0.015848931924611127,0,0.4831802450007672
75,572,FarLowNarrow,0.1,0.15,0.2,0.01995262314968879,0,0.3933840740010055
75,573,FarLowNarrow,0.1,0.15,0.2,0.025118864315095794,1,0.4064188780012046
75,574,FarLowNarrow,0.1,0.15,0.2,0.01995262314968879,1,0.27641143199980434
75,575,FarHighNarrow,0.2,0.15,0.1,0.015848931924611127,1,0.2823760619994573
75,576,Constant,0.1,0.1,0.1,0.00794328234724281,1,0.26499933100058115
75,577,FarHighNarrow,0.2,0.15,0.1,0.012589254117941666,0,0.6074522130002151
75,578,FarLowNarrow,0.1,0.15,0.2,0.015848931924611127,1,0.5873614049996831
75,579,FarHighNarrow,0.2,0.15,0.1,0.015848931924611127,1,0.4162628340000083
75,580,FarLowNarrow,0.1,0.15,0.2,0.012589254117941666,0,0.3245409009996365
75,581,ThreeLinesControl,0.0,0.0,0.1,0.012589254117941666,0,0.4737161079992802
75,582,Constant,0.1,0.1,0.1,0.0063095734448019285,1,0.4477321940012189
75,583,FarLowWide_null,0.03,0.25,0.5,0.00794328234724281,1,0.5316351420005958
75,584,ThreeLinesControl,0.0,0.0,0.1,0.015848931924611127,0,0.3620558409984369
75,585,FarLowWide,0.03,0.25,0.5,0.01995262314968879,0,0.47218162899844174
75,586,Constant,0.1,0.1,0.1,0.005011872336272719,0,0.39824179300012474
75,587,FarHighNarrow,0.2,0.15,0.1,0.012589254117941666,0,0.3806955370000651
75,588,FarHighWide_null,0.5,0.25,0.03,0.031622776601683784,1,0.4657529510004679
75,589,FarHighWide,0.5,0.25,0.03,0.01584893192461113,1,0.5038794299998699
75,590,FarLowWide,0.03,0.25,0.5,0.025118864315095794,1,0.40615056100068614
75,591,FarHighNarrow,0.2,0.15,0.1,0.015848931924611127,1,0.41937463999965985
75,592,FarHighWide,0.5,0.25,0.03,0.012589254117941668,0,0.5534232800000609
75,593,FarHighWide,0.5,0.25,0.03,0.01584893192461113,0,0.4730098210002325
75,594,FarLowNarrow,0.1,0.15,0.2,0.015848931924611127,0,0.4995770890000131
75,595,FarHighNarrow,0.2,0.15,0.1,0.012589254117941666,0,0.3525580189998436
75,596,Constant,0.1,0.1,0.1,0.0063095734448019285,0,0.4468385340005625
75,597,ThreeLinesControl,0.0,0.0,0.1,0.01995262314968879,1,0.4343496920009784
75,598,Constant,0.1,0.1,0.1,0.00794328234724281,0,0.416278508000687
75,599,Constant,0.1,0.1,0.1,0.009999999999999995,0,0.340405703000215
75,600,Constant,0.1,0.1,0.1,0.012589254117941666,0,0.4008253080010036
75,601,FarHighWide,0.5,0.25,0.03,0.019952623149688792,0,0.39625322699976095
75,602,FarHighNarrow,0.2,0.15,0.1,0.015848931924611127,0,0.4344348929989792
75,603,FarHighNarrow,0.2,0.15,0.1,0.01995262314968879,0,0.4564897710006335
75,604,FarLowWide,0.03,0.25,0.5,0.01995262314968879,0,0.44361431000106677
75,605,Constant,0.1,0.1,0.1,0.015848931924611127,1,0.47394968300068285
75,606,FarHighNarrow,0.2,0.15,0.1,0.025118864315095794,1,0.2708134760014218
75,607,Constant,0.1,0.1,0.1,0.012589254117941666,0,0.31579364000026544
75,608,FarLowWide,0.03,0.25,0.5,0.025118864315095794,1,0.44195280900021316
75,609,FarLowNarrow,0.1,0.15,0.2,0.01995262314968879,1,0.35237887400035106
75,610,FarLowNarrow,0.1,0.15,0.2,0.015848931924611127,1,0.5586569309998595
75,611,ThreeLinesControl,0.0,0.0,0.1,0.015848931924611127,0,0.684670772001482
75,612,FarLowNarrow,0.1,0.15,0.2,0.012589254117941666,0,0.6107222669998009
75,613,Constant,0.1,0.1,0.1,0.015848931924611127,1,0.8824546579999151
75,614,ThreeLinesControl_null,0.0,0.0,0.1,0.0063095734448019285,1,0.9761708269998053
75,615,FarHighNarrow,0.2,0.15,0.1,0.01995262314968879,0,0.51590132399906
75,616,FarLowWide,0.03,0.25,0.5,0.01995262314968879,0,0.4982288119990699
75,617,ThreeLinesControl,0.0,0.0,0.1,0.01995262314968879,0,0.3974231639986101
75,618,FarLowNarrow,0.1,0.15,0.2,0.015848931924611127,1,0.812187993000407
75,619,ThreeLinesControl,0.0,0.0,0.1,0.025118864315095794,1,0.7050904190000438
75,620,FarHighWide_null,0.5,0.25,0.03,0.02511886431509579,1,0.42104340299920295
75,621,ThreeLinesControl,0.0,0.0,0.1,0.01995262314968879,1,0.5153790490003303
75,622,Constant,0.1,0.1,0.1,0.012589254117941666,1,0.5601032380000106
75,623,FarLowWide,0.03,0.25,0.5,0.025118864315095794,0,0.9653059129996109
75,624,FarLowWide,0.03,0.25,0.5,0.031622776601683784,1,0.4916436959993007
75,625,FarHighWide_null,0.5,0.25,0.03,0.01995262314968879,1,0.45784759699927235
75,626,ThreeLinesControl,0.0,0.0,0.1,0.015848931924611127,0,0.5439968669998052
75,627,FarLowNarrow_null,0.1,0.15,0.2,0.015848931924611127,1,0.558211442999891
75,628,FarHighNarrow,0.2,0.15,0.1,0.025118864315095794,1,0.51640148000115
75,629,FarHighWide,0.5,0.25,0.03,0.025118864315095798,1,0.48248052899907634
75,630,FarLowWide,0.03,0.25,0.5,0.02511886431509579,0,0.5534678429994528
75,631,ThreeLinesControl,0.0,0.0,0.1,0.01995262314968879,1,0.5736103449999064
75,632,FarLowWide,0.03,0.25,0.5,0.031622776601683784,1,0.4038524719999259
75,633,FarLowNarrow,0.1,0.15,0.2,0.012589254117941666,1,0.46595390800030145
75,634,FarHighWide,0.5,0.25,0.03,0.019952623149688792,1,0.45295834300122806
75,635,FarHighWide,0.5,0.25,0.03,0.01584893192461113,1,0.39519896099955076
75,636,Constant,0.1,0.1,0.1,0.009999999999999995,1,0.4863782659995195
75,637,FarLowWide_null,0.03,0.25,0.5,0.0063095734448019285,1,0.3952868309988844
75,638,FarHighWide,0.5,0.25,0.03,0.012589254117941668,0,0.5936718309985736
75,639,FarHighNarrow,0.2,0.15,0.1,0.01995262314968879,0,0.42278509399875475
75,640,FarLowNarrow,0.1,0.15,0.2,0.009999999999999995,0,0.33297090800078877
75,641,FarLowWide,0.03,0.25,0.5,0.02511886431509579,1,0.35468955599935725
75,642,FarHighWide,0.5,0.25,0.03,0.01584893192461113,1,0.9213082890000805
75,643,ThreeLinesControl,0.0,0.0,0.1,0.015848931924611127,1,0.8554059200014308
75,644,FarHighWide_null,0.5,0.25,0.03,0.015848931924611127,1,0.8860768359991198
75,645,FarHighWide,0.5,0.25,0.03,0.012589254117941668,0,0.6447562079993077
75,646,Constant,0.1,0.1,0.1,0.00794328234724281,0,0.4432784900000115
75,647,FarLowNarrow,0.1,0.15,0.2,0.012589254117941666,0,0.3420076170004904
75,648,FarLowNarrow,0.1,0.15,0.2,0.015848931924611127,1,0.6448941790004028
75,649,FarHighNarrow,0.2,0.15,0.1,0.025118864315095794,1,0.40217989700067847
75,650,FarLowWide,0.03,0.25,0.5,0.01995262314968879,0,0.3013800150001771
75,651,FarHighWide,0.5,0.25,0.03,0.01584893192461113,0,0.4435023909991287
75,652,FarLowNarrow,0.1,0.15,0.2,0.012589254117941666,0,0.3296504699992511
75,653,Constant,0.1,0.1,0.1,0.009999999999999995,0,0.23688940000101866
75,654,FarLowNarrow,0.1,0.15,0.2,0.015848931924611127,0,0.24295415500091622
75,655,FarHighNarrow,0.2,0.15,0.1,0.01995262314968879,0,0.21610654299911403
75,656,Constant,0.1,0.1,0.1,0.012589254117941666,0,0.30221798899947316
75,657,Constant,0.1,0.1,0.1,0.015848931924611127,0,0.27651932399930956
75,658,Constant,0.1,0.1,0.1,0.01995262314968879,0,0.21856754100008402
75,659,FarLowNarrow,0.1,0.15,0.2,0.01995262314968879,0,0.34477039800003695
75,660,ThreeLinesControl,0.0,0.0,0.1,0.012589254117941666,0,0.365901291001137
75,661,FarLowNarrow,0.1,0.15,0.2,0.025118864315095794,0,0.3494199100005062
75,662,FarLowWide,0.03,0.25,0.5,0.025118864315095794,0,0.4594868710009905
75,663,FarHighNarrow,0.2,0.15,0.1,0.025118864315095794,1,0.31916371600163984
75,664,FarLowNarrow,0.1,0.15,0.2,0.031622776601683784,1,0.23750400800054194
75,665,Constant,0.1,0.1,0.1,0.025118864315095794,1,0.23549602000093728
75,666,FarHighNarrow,0.2,0.15,0.1,0.01995262314968879,1,0.2309305909984687
75,667,FarHighNarrow,0.2,0.15,0.1,0.015848931924611127,1,0.3083113630000298
75,668,ThreeLinesControl,0.0,0.0,0.1,0.015848931924611127,0,0.4431650679998711
75,669,FarHighWide,0.5,0.25,0.03,0.019952623149688792,0,0.4382873220001784
75,670,FarLowWide,0.03,0.25,0.5,0.031622776601683784,1,0.372491779999109
75,671,FarLowWide,0.03,0.25,0.5,0.02511886431509579,1,0.2815326309992088
75,672,FarLowWide,0.03,0.25,0.5,0.01995262314968879,0,0.5115488479987107
75,673,ThreeLinesControl,0.0,0.0,0.1,0.01995262314968879,0,0.41358411199871625
75,674,Constant,0.1,0.1,0.1,0.01995262314968879,1,0.31605097700048645
75,675,FarLowWide,0.03,0.25,0.5,0.025118864315095794,1,0.3371060730005411
75,676,FarLowNarrow,0.1,0.15,0.2,0.02511886431509579,1,0.30303591299889376
75,677,FarHighNarrow,0.2,0.15,0.1,0.012589254117941666,0,0.6067094669997459
75,678,FarLowWide,0.03,0.25,0.5,0.01995262314968879,0,0.2527705779993994
75,679,FarLowWide,0.03,0.25,0.5,0.025118864315095794,0,0.2830922350003675
75,680,FarHighNarrow,0.2,0.15,0.1,0.015848931924611127,0,0.2552987260005466
75,681,FarHighWide,0.5,0.25,0.03,0.025118864315095798,1,0.3491094990004058
75,682,FarHighNarrow,0.2,0.15,0.1,0.01995262314968879,1,0.3600828819999151
75,683,FarLowWide,0.03,0.25,0.5,0.031622776601683784,1,0.5823350660011783
75,684,FarLowNarrow,0.1,0.15,0.2,0.01995262314968879,0,0.6365111350005463
75,685,FarLowWide,0.03,0.25,0.5,0.02511886431509579,0,0.4793456019997393
75,686,ThreeLinesControl,0.0,0.0,0.1,0.025118864315095794,0,0.46169762600038666
75,687,FarLowWide,0.03,0.25,0.5,0.031622776601683784,0,0.6037132130004466
75,688,FarLowNarrow,0.1,0.15,0.2,0.025118864315095794,0,0.6740925249996508
75,689,ThreeLinesControl,0.0,0.0,0.1,0.031622776601683784,1,0.31916415199884796
75,690,Constant,0.1,0.1,0.1,0.015848931924611127,1,0.3253654390009615
75,691,FarHighWide,0.5,0.25,0.03,0.019952623149688792,1,0.5715482239993435
75,692,FarLowNarrow,0.1,0.15,0.2,0.031622776601683784,1,0.3766298470000038
75,693,FarLowNarrow,0.1,0.15,0.2,0.02511886431509579,1,0.32706629799940856
75,694,FarHighNarrow,0.2,0.15,0.1,0.015848931924611127,0,0.4941259829993214
75,695,FarHighWide,0.5,0.25,0.03,0.01584893192461113,0,0.7246167120010796
75,696,Constant,0.1,0.1,0.1,0.012589254117941666,0,99
75,697,FarLowNarrow,0.1,0.15,0.2,0.01995262314968879,0,99
75,698,FarHighWide,0.5,0.25,0.03,0.019952623149688792,0,99
75,699,FarLowWide_null,0.03,0.25,0.5,0.005011872336272719,0,99
75,700,FarLowWide,0.03,0.25,0.5,0.03981071705534971,0,99
75,701,ThreeLinesControl,0.0,0.0,0.1,0.02511886431509579,0,99
75,702,FarLowWide,0.03,0.25,0.5,0.05011872336272721,0,99
75,703,FarHighWide,0.5,0.25,0.03,0.025118864315095798,0,99
75,704,ThreeLinesControl,0.0,0.0,0.1,0.031622776601683784,0,99
75,705,FarHighNarrow,0.2,0.15,0.1,0.01995262314968879,0,99
75,706,FarLowWide,0.03,0.25,0.5,0.0630957344480193,0,99
75,707,Constant,0.1,0.1,0.1,0.015848931924611127,0,99
75,708,FarHighNarrow_null,0.2,0.15,0.1,0.015848931924611127,0,99
75,709,ThreeLinesControl,0.0,0.0,0.1,0.03981071705534971,0,99
75,710,Constant,0.1,0.1,0.1,0.01995262314968879,0,99
75,711,FarHighNarrow,0.2,0.15,0.1,0.025118864315095794,0,99
75,712,Constant,0.1,0.1,0.1,0.025118864315095794,0,99
75,713,FarHighWide,0.5,0.25,0.03,0.03162277660168379,0,99
75,714,FarHighWide,0.5,0.25,0.03,0.03981071705534973,0,99
75,715,Constant,0.1,0.1,0.1,0.031622776601683784,0,99
75,716,ThreeLinesControl_null,0.0,0.0,0.1,0.005011872336272719,0,99
75,717,FarLowNarrow,0.1,0.15,0.2,0.025118864315095794,0,99
75,718,FarLowWide,0.03,0.25,0.5,0.07943282347242812,0,99
75,719,FarHighWide,0.5,0.25,0.03,0.050118723362727234,0,99
75,720,ThreeLinesControl,0.0,0.0,0.1,0.05011872336272721,0,1.090094961999057
75,721,ThreeLinesControl,0.0,0.0,0.1,0.0630957344480193,0,0.9350657519989909
75,722,FarHighNarrow,0.2,0.15,0.1,0.031622776601683784,0,0.4527740069988795
75,723,FarLowWide,0.03,0.25,0.5,0.09999999999999998,0,0.2891830150001624
75,724,FarLowWide_null,0.03,0.25,0.5,0.0063095734448019285,1,0.3592802599996503
75,725,FarHighWide,0.5,0.25,0.03,0.06309573444801933,1,0.5092644550004479
75,726,FarLowWide,0.03,0.25,0.5,0.1,1,0.37148320700180193
75,727,FarLowWide,0.03,0.25,0.5,0.07943282347242815,1,0.3538241400001425
75,728,FarLowWide,0.03,0.25,0.5,0.06309573444801932,1,0.34397901100055606
75,729,ThreeLinesControl,0.0,0.0,0.1,0.07943282347242812,1,0.38188675499986857
75,730,FarLowWide,0.03,0.25,0.5,0.05011872336272722,1,0.46841787999983353
75,731,ThreeLinesControl,0.0,0.0,0.1,0.0630957344480193,1,0.289645142000154
75,732,FarHighWide,0.5,0.25,0.03,0.05011872336272723,1,0.26487540699963574
75,733,Constant,0.1,0.1,0.1,0.03981071705534971,1,0.2535608929993032
75,734,FarHighNarrow,0.2,0.15,0.1,0.03981071705534971,1,0.208744357998512
75,735,FarHighWide,0.5,0.25,0.03,0.03981071705534972,1,0.2069938889999321
75,736,FarLowNarrow,0.1,0.15,0.2,0.031622776601683784,1,0.34912004599937063
75,737,ThreeLinesControl,0.0,0.0,0.1,0.050118723362727206,1,0.3280105040012131
75,738,Constant,0.1,0.1,0.1,0.031622776601683784,1,0.2774474729994836
75,739,Constant,0.1,0.1,0.1,0.02511886431509579,1,0.17858489399986865
75,740,FarHighNarrow_null,0.2,0.15,0.1,0.01995262314968879,1,0.32874421999986225
75,741,FarHighWide,0.5,0.25,0.03,0.031622776601683784,1,0.3178715009998996
75,742,FarHighWide_null,0.5,0.25,0.03,0.012589254117941666,0,0.2600969820014143
75,743,Constant,0.1,0.1,0.1,0.01995262314968879,0,0.298216646999208
75,744,Constant_null,0.1,0.1,0.1,0.05011872336272722,1,0.29637770199951774
75,745,Constant,0.1,0.1,0.1,0.025118864315095794,0,0.2155653310001071
75,746,ThreeLinesControl,0.0,0.0,0.1,0.039810717055349706,1,0.3245665159993223
75,747,Constant,0.1,0.1,0.1,0.031622776601683784,1,0.2672075170012249
75,748,ThreeLinesControl,0.0,0.0,0.1,0.03162277660168378,1,0.27889243900062866
75,749,ThreeLinesControl,0.0,0.0,0.1,0.025118864315095787,0,0.4202919550007209
75,750,Constant,0.1,0.1,0.1,0.02511886431509579,0,0.4149579069999163
75,751,FarHighNarrow,0.2,0.15,0.1,0.031622776601683784,0,99
75,752,FarLowNarrow,0.1,0.15,0.2,0.02511886431509579,0,99
75,753,Constant,0.1,0.1,0.1,0.031622776601683784,0,99
75,754,FarHighNarrow_null,0.2,0.15,0.1,0.015848931924611127,0,99
75,755,FarHighWide,0.5,0.25,0.03,0.02511886431509579,0,99
75,756,FarLowWide,0.03,0.25,0.5,0.03981071705534971,0,99
75,757,FarHighWide,0.5,0.25,0.03,0.031622776601683784,0,99
75,758,FarLowNarrow,0.1,0.15,0.2,0.031622776601683784,0,99
75,759,FarHighNarrow_null,0.2,0.15,0.1,0.01995262314968879,0,99
75,760,FarHighNarrow,0.2,0.15,0.1,0.03981071705534971,0,99
75,761,ThreeLinesControl,0.0,0.0,0.1,0.03162277660168378,0,99
75,762,Constant,0.1,0.1,0.1,0.03981071705534971,0,99
75,763,FarLowWide,0.03,0.25,0.5,0.05011872336272721,0,99
75,764,FarHighWide_null,0.5,0.25,0.03,0.015848931924611127,0,99
75,765,Constant,0.1,0.1,0.1,0.05011872336272721,0,99
75,766,FarLowNarrow,0.1,0.15,0.2,0.03981071705534971,0,99
75,767,FarHighWide,0.5,0.25,0.03,0.03981071705534971,0,99
75,768,FarLowWide_null,0.03,0.25,0.5,0.005011872336272719,0,99
75,769,ThreeLinesControl,0.0,0.0,0.1,0.039810717055349706,0,99
75,770,FarHighWide,0.5,0.25,0.03,0.05011872336272721,0,99
75,771,FarHighWide,0.5,0.25,0.03,0.0630957344480193,0,99
75,772,FarHighNarrow,0.2,0.15,0.1,0.05011872336272721,0,99
75,773,ThreeLinesControl,0.0,0.0,0.1,0.050118723362727206,0,99
75,774,FarHighNarrow,0.2,0.15,0.1,0.0630957344480193,0,99
75,775,FarLowNarrow,0.1,0.15,0.2,0.05011872336272721,0,99
75,776,FarHighNarrow,0.2,0.15,0.1,0.07943282347242812,0,99
75,777,FarLowNarrow,0.1,0.15,0.2,0.0630957344480193,0,99
75,778,FarLowNarrow,0.1,0.15,0.2,0.07943282347242812,0,99
75,779,FarLowWide,0.03,0.25,0.5,0.0630957344480193,0,99
75,780,FarHighWide,0.5,0.25,0.03,0.07943282347242812,0,99
75,781,FarHighWide,0.5,0.25,0.03,0.09999999999999998,0,99
75,782,Constant,0.1,0.1,0.1,0.0630957344480193,0,99
75,783,FarLowNarrow,0.1,0.15,0.2,0.09999999999999998,0,99
75,784,Constant,0.1,0.1,0.1,0.07943282347242812,0,99
75,785,FarLowNarrow,0.1,0.15,0.2,0.1,0,99
75,786,FarLowWide,0.03,0.25,0.5,0.07943282347242812,0,99
75,787,Constant,0.1,0.1,0.1,0.09999999999999998,0,99
75,788,FarLowNarrow,0.1,0.15,0.2,0.1,0,99
75,789,Constant,0.1,0.1,0.1,0.1,0,99
75,790,FarLowNarrow,0.1,0.15,0.2,0.1,0,99
75,791,FarHighNarrow,0.2,0.15,0.1,0.09999999999999998,0,99
75,792,ThreeLinesControl,0.0,0.0,0.1,0.0630957344480193,0,99
75,793,FarLowNarrow,0.1,0.15,0.2,0.1,0,99
75,794,Constant,0.1,0.1,0.1,0.1,0,99
75,795,FarHighNarrow,0.2,0.15,0.1,0.1,0,99
75,796,FarLowNarrow,0.1,0.15,0.2,0.1,0,99
75,797,ThreeLinesControl_null,0.0,0.0,0.1,0.0063095734448019285,0,99
75,798,FarHighWide,0.5,0.25,0.03,0.1,0,99
75,799,ThreeLinesControl,0.0,0.0,0.1,0.07943282347242812,0,99
75,800,FarLowNarrow,0.1,0.15,0.2,0.1,0,99
75,801,FarHighNarrow,0.2,0.15,0.1,0.1,0,99
75,802,FarHighNarrow,0.2,0.15,0.1,0.1,0,99
75,803,FarHighNarrow,0.2,0.15,0.1,0.1,0,99
75,804,FarHighWide,0.5,0.25,0.03,0.1,0,99
75,805,FarHighNarrow,0.2,0.15,0.1,0.1,0,99
75,806,FarHighNarrow,0.2,0.15,0.1,0.1,0,99
75,807,FarHighWide,0.5,0.25,0.03,0.1,0,99
75,808,ThreeLinesControl,0.0,0.0,0.1,0.09999999999999998,0,99
75,809,FarHighWide,0.5,0.25,0.03,0.1,0,99
75,810,FarHighWide,0.5,0.25,0.03,0.1,0,99
75,811,FarHighWide,0.5,0.25,0.03,0.1,0,99
75,812,FarLowWide,0.03,0.25,0.5,0.09999999999999998,0,99
75,813,ThreeLinesControl,0.0,0.0,0.1,0.1,0,99
75,814,FarLowWide,0.03,0.25,0.5,0.1,0,99
75,815,FarHighNarrow,0.2,0.15,0.1,0.1,0,99
75,816,FarHighNarrow,0.2,0.15,0.1,0.1,0,99
75,817,Constant,0.1,0.1,0.1,0.1,0,99
75,818,ThreeLinesControl,0.0,0.0,0.1,0.1,0,99
75,819,ThreeLinesControl_null,0.0,0.0,0.1,0.00794328234724281,0,99
75,820,Constant,0.1,0.1,0.1,0.1,0,99
75,821,FarHighNarrow,0.2,0.15,0.1,0.1,0,99
75,822,FarLowNarrow,0.1,0.15,0.2,0.1,0,99
75,823,FarHighWide,0.5,0.25,0.03,0.1,0,99
75,824,FarHighNarrow,0.2,0.15,0.1,0.1,0,99
75,825,FarLowWide,0.03,0.25,0.5,0.1,0,99
75,826,FarLowNarrow,0.1,0.15,0.2,0.1,0,99
75,827,FarHighWide_null,0.5,0.25,0.03,0.01995262314968879,0,99
75,828,FarHighNarrow,0.2,0.15,0.1,0.1,0,99
75,829,ThreeLinesControl_null,0.0,0.0,0.1,0.009999999999999995,0,99
75,830,FarHighNarrow,0.2,0.15,0.1,0.1,0,99
75,831,FarLowNarrow,0.1,0.15,0.2,0.1,0,99
75,832,FarHighNarrow,0.2,0.15,0.1,0.1,0,99
75,833,ThreeLinesControl,0.0,0.0,0.1,0.1,0,99
75,834,FarHighNarrow,0.2,0.15,0.1,0.1,0,99
75,835,FarHighNarrow_null,0.2,0.15,0.1,0.025118864315095794,0,99
75,836,Constant,0.1,0.1,0.1,0.1,0,99
75,837,Constant,0.1,0.1,0.1,0.1,0,99
75,838,FarLowNarrow_null,0.1,0.15,0.2,0.012589254117941666,0,99
75,839,FarHighWide,0.5,0.25,0.03,0.1,0,99
