Participant_Number,Trial_Number,Condition,FCfar,FCmed,FCclose,Target_Contrast,Correct_Response,Reaction_Time
84,0,FarHighWide,0.5,0.25,0.03,0.1,0,0.9465606459998526
84,1,FarHighWide,0.5,0.25,0.03,0.1,1,0.5844420830007948
84,2,Constant_null,0.1,0.1,0.1,0.1,1,0.6304599420000159
84,3,FarLowNarrow,0.1,0.15,0.2,0.1,1,0.5726986849995228
84,4,FarHighWide,0.5,0.25,0.03,0.07943282347242815,1,0.5870525750005982
84,5,ThreeLinesControl_null,0.0,0.0,0.1,0.1,1,0.5202111910002714
84,6,FarLowWide,0.03,0.25,0.5,0.1,1,0.4065273349997369
84,7,Constant,0.1,0.1,0.1,0.1,1,0.3736788409996734
84,8,Constant,0.1,0.1,0.1,0.07943282347242815,1,0.4678706710001279
84,9,FarLowWide,0.03,0.25,0.5,0.07943282347242815,1,0.39973165599985805
84,10,FarHighWide,0.5,0.25,0.03,0.06309573444801932,1,0.4220380520000617
84,11,FarLowNarrow,0.1,0.15,0.2,0.07943282347242815,1,0.3450114029992619
84,12,FarLowNarrow,0.1,0.15,0.2,0.06309573444801932,1,0.3832284689997323
84,13,FarLowWide,0.03,0.25,0.5,0.06309573444801932,1,0.4123181000004479
84,14,FarLowNarrow,0.1,0.15,0.2,0.05011872336272722,1,0.360144149000007
84,15,Constant,0.1,0.1,0.1,0.06309573444801932,1,0.382639396999366
84,16,FarHighNarrow,0.2,0.15,0.1,0.1,1,0.356101598999885
84,17,ThreeLinesControl,0.0,0.0,0.1,0.1,1,0.4028967690001082
84,18,ThreeLinesControl,0.0,0.0,0.1,0.07943282347242815,1,0.39302822100034973
84,19,FarHighNarrow,0.2,0.15,0.1,0.07943282347242815,1,0.43829442800051766
84,20,Constant,0.1,0.1,0.1,0.05011872336272722,1,0.5079415370000788
84,21,FarLowWide,0.03,0.25,0.5,0.05011872336272722,1,0.498289621999902
84,22,Constant,0.1,0.1,0.1,0.03981071705534971,1,0.5205106240000532
84,23,ThreeLinesControl,0.0,0.0,0.1,0.06309573444801932,1,0.45463366199965094
84,24,FarHighWide,0.5,0.25,0.03,0.05011872336272722,1,0.3891039099999034
84,25,FarHighWide,0.5,0.25,0.03,0.03981071705534971,1,0.3771596819997285
84,26,FarLowNarrow,0.1,0.15,0.2,0.03981071705534971,1,0.43915766600002826
84,27,FarLowWide,0.03,0.25,0.5,0.03981071705534971,1,0.3003801280001426
84,28,FarLowNarrow,0.1,0.15,0.2,0.031622776601683784,1,0.2954828069996438
84,29,ThreeLinesControl,0.0,0.0,0.1,0.05011872336272722,1,0.3176138769995305
84,30,FarLowNarrow,0.1,0.15,0.2,0.02511886431509579,1,0.43381409799985704
84,31,FarHighNarrow,0.2,0.15,0.1,0.06309573444801932,1,0.5278356979997625
84,32,FarLowNarrow,0.1,0.15,0.2,0.01995262314968879,0,0.6220626879994597
84,33,FarLowNarrow,0.1,0.15,0.2,0.025118864315095794,1,0.5802087360007135
84,34,FarLowWide,0.03,0.25,0.5,0.031622776601683784,1,0.8813854200006972
84,35,FarLowNarrow_null,0.1,0.15,0.2,0.1,0,0.5915735190001215
84,36,FarLowWide,0.03,0.25,0.5,0.02511886431509579,1,0.4538514480000231
84,37,FarHighNarrow,0.2,0.15,0.1,0.05011872336272722,1,0.5075531530001172
84,38,ThreeLinesControl,0.0,0.0,0.1,0.03981071705534971,1,0.5142096740000852
84,39,FarLowNarrow,0.1,0.15,0.2,0.01995262314968879,1,0.5285592790005467
84,40,FarHighNarrow,0.2,0.15,0.1,0.03981071705534971,1,0.463507142000708
84,41,FarLowNarrow,0.1,0.15,0.2,0.015848931924611127,1,0.5544348190005621
84,42,Constant,0.1,0.1,0.1,0.031622776601683784,1,0.5840453880000496
84,43,Constant_null,0.1,0.1,0.1,0.07943282347242815,1,0.549882532999618
84,44,Constant,0.1,0.1,0.1,0.02511886431509579,0,0.6407623899995087
84,45,Constant,0.1,0.1,0.1,0.031622776601683784,1,0.47880335100035154
84,46,FarHighWide,0.5,0.25,0.03,0.031622776601683784,1,0.4853735469996536
84,47,FarHighNarrow,0.2,0.15,0.1,0.031622776601683784,1,0.40733663699938916
84,48,FarHighWide,0.5,0.25,0.03,0.02511886431509579,1,0.43750657999953546
84,49,FarHighWide,0.5,0.25,0.03,0.01995262314968879,1,0.7475819250003042
84,50,FarLowNarrow,0.1,0.15,0.2,0.012589254117941666,0,0.537591271000565
84,51,FarHighNarrow,0.2,0.15,0.1,0.02511886431509579,0,0.5749666580004487
84,52,FarLowNarrow,0.1,0.15,0.2,0.015848931924611127,0,0.5899446920002447
84,53,FarLowWide_null,0.03,0.25,0.5,0.1,1,0.5481704080002601
84,54,FarLowNarrow,0.1,0.15,0.2,0.01995262314968879,0,0.4741115009992427
84,55,ThreeLinesControl,0.0,0.0,0.1,0.031622776601683784,1,0.5196100290004324
84,56,Constant,0.1,0.1,0.1,0.02511886431509579,1,0.6137713179996354
84,57,ThreeLinesControl,0.0,0.0,0.1,0.02511886431509579,1,0.537820183999429
84,58,FarHighWide,0.5,0.25,0.03,0.015848931924611127,0,0.6075715910001236
84,59,FarHighNarrow,0.2,0.15,0.1,0.031622776601683784,1,0.6061068779999914
84,60,FarHighWide,0.5,0.25,0.03,0.01995262314968879,0,0.5532179289994019
84,61,FarLowWide_null,0.03,0.25,0.5,0.07943282347242815,1,0.5104131679991042
84,62,ThreeLinesControl,0.0,0.0,0.1,0.01995262314968879,0,0.4524448180000036
84,63,ThreeLinesControl,0.0,0.0,0.1,0.025118864315095794,0,0.4097310670003935
84,64,FarLowWide_null,0.03,0.25,0.5,0.06309573444801932,1,0.470802685000308
84,65,ThreeLinesControl,0.0,0.0,0.1,0.031622776601683784,1,0.6530383459994482
84,66,FarHighWide,0.5,0.25,0.03,0.025118864315095794,1,0.6260246159999951
84,67,FarLowNarrow,0.1,0.15,0.2,0.025118864315095794,0,0.6882726760004516
84,68,FarLowNarrow,0.1,0.15,0.2,0.031622776601683784,1,0.4944022199997562
84,69,FarLowWide,0.03,0.25,0.5,0.01995262314968879,0,0.5741372950005825
84,70,ThreeLinesControl,0.0,0.0,0.1,0.02511886431509579,1,0.5626786319999155
84,71,Constant,0.1,0.1,0.1,0.01995262314968879,0,0.49574034600027517
84,72,ThreeLinesControl,0.0,0.0,0.1,0.01995262314968879,0,0.542042930000207
84,73,FarLowWide,0.03,0.25,0.5,0.025118864315095794,0,0.42812122699979227
84,74,ThreeLinesControl,0.0,0.0,0.1,0.025118864315095794,0,0.295491812000364
84,75,FarLowWide,0.03,0.25,0.5,0.031622776601683784,0,0.45359739900050045
84,76,FarHighNarrow,0.2,0.15,0.1,0.02511886431509579,0,0.5208729400001175
84,77,ThreeLinesControl,0.0,0.0,0.1,0.031622776601683784,1,0.5108378679997259
84,78,FarLowWide,0.03,0.25,0.5,0.03981071705534971,1,0.6209225100001277
84,79,FarHighNarrow,0.2,0.15,0.1,0.031622776601683784,1,0.6090761340001336
84,80,FarLowWide,0.03,0.25,0.5,0.031622776601683784,1,0.5191372780000165
84,81,FarLowNarrow,0.1,0.15,0.2,0.02511886431509579,0,0.6533717940001225
84,82,FarHighNarrow,0.2,0.15,0.1,0.02511886431509579,1,0.4755625410007269
84,83,FarLowWide,0.03,0.25,0.5,0.02511886431509579,0,0.9377536350002629
84,84,ThreeLinesControl,0.0,0.0,0.1,0.02511886431509579,0,0.415597784000056
84,85,FarLowWide,0.03,0.25,0.5,0.031622776601683784,0,0.44719092000013916
84,86,FarLowWide,0.03,0.25,0.5,0.03981071705534971,1,0.5400019809994774
84,87,FarLowNarrow,0.1,0.15,0.2,0.031622776601683784,1,0.5853032430004532
84,88,FarLowWide,0.03,0.25,0.5,0.031622776601683784,0,0.60739927800023
84,89,Constant,0.1,0.1,0.1,0.025118864315095794,0,0.9494998939999277
84,90,Constant,0.1,0.1,0.1,0.031622776601683784,1,0.5846768709998287
84,91,FarHighWide,0.5,0.25,0.03,0.01995262314968879,0,0.5908296269999482
84,92,FarHighNarrow,0.2,0.15,0.1,0.01995262314968879,0,0.48401662499964004
84,93,ThreeLinesControl,0.0,0.0,0.1,0.031622776601683784,1,0.6482072850003533
84,94,Constant,0.1,0.1,0.1,0.02511886431509579,1,0.716947486999743
84,95,FarHighWide,0.5,0.25,0.03,0.025118864315095794,0,0.7865225770001416
84,96,ThreeLinesControl,0.0,0.0,0.1,0.02511886431509579,0,0.6564230650001264
84,97,FarLowNarrow,0.1,0.15,0.2,0.02511886431509579,1,0.5107426320000741
84,98,Constant,0.1,0.1,0.1,0.01995262314968879,0,0.5962009770000805
84,99,FarHighNarrow_null,0.2,0.15,0.1,0.1,1,0.570965711000099
84,100,FarLowNarrow_null,0.1,0.15,0.2,0.1,1,0.5120225139999093
84,101,FarHighNarrow,0.2,0.15,0.1,0.025118864315095794,1,0.6552790539999478
84,102,ThreeLinesControl,0.0,0.0,0.1,0.031622776601683784,1,0.46313249100057874
84,103,FarLowNarrow,0.1,0.15,0.2,0.01995262314968879,1,0.4985826489992178
84,104,FarHighNarrow,0.2,0.15,0.1,0.01995262314968879,0,0.7778187940002681
84,105,Constant,0.1,0.1,0.1,0.025118864315095794,1,0.5499647609995009
84,106,ThreeLinesControl_null,0.0,0.0,0.1,0.07943282347242815,1,0.6651043419997222
84,107,FarHighWide_null,0.5,0.25,0.03,0.1,1,0.5993245070003468
84,108,Constant_null,0.1,0.1,0.1,0.06309573444801932,1,0.5003298030005681
84,109,FarHighNarrow,0.2,0.15,0.1,0.025118864315095794,0,0.887582148000547
84,110,FarHighWide,0.5,0.25,0.03,0.031622776601683784,1,0.7014895139991495
84,111,Constant,0.1,0.1,0.1,0.01995262314968879,0,0.49990858900036983
84,112,FarHighNarrow,0.2,0.15,0.1,0.031622776601683784,1,0.45681539900033385
84,113,FarHighNarrow,0.2,0.15,0.1,0.02511886431509579,0,0.4789388600001985
84,114,FarHighNarrow,0.2,0.15,0.1,0.031622776601683784,1,0.5813985830000092
84,115,FarLowWide,0.03,0.25,0.5,0.03981071705534971,0,0.5873415450005268
84,116,FarLowWide,0.03,0.25,0.5,0.05011872336272721,1,0.5697045639999487
84,117,FarHighNarrow,0.2,0.15,0.1,0.02511886431509579,1,0.5038124259999677
84,118,ThreeLinesControl,0.0,0.0,0.1,0.02511886431509579,1,0.4551599480000732
84,119,FarHighNarrow_null,0.2,0.15,0.1,0.07943282347242815,1,0.6050389299998642
84,120,Constant,0.1,0.1,0.1,0.025118864315095794,1,0.6291840160001811
84,121,FarLowNarrow,0.1,0.15,0.2,0.015848931924611127,0,0.48345724799946765
84,122,FarLowNarrow,0.1,0.15,0.2,0.01995262314968879,0,0.35344339000039326
84,123,FarLowNarrow_null,0.1,0.15,0.2,0.07943282347242815,1,0.31169528600003105
84,124,Constant,0.1,0.1,0.1,0.01995262314968879,0,0.3647077340001488
84,125,FarLowNarrow,0.1,0.15,0.2,0.025118864315095794,1,0.4829917970000679
84,126,FarHighWide_null,0.5,0.25,0.03,0.07943282347242815,1,0.4729911700005687
84,127,ThreeLinesControl_null,0.0,0.0,0.1,0.06309573444801932,1,0.44716116699964914
84,128,FarHighWide,0.5,0.25,0.03,0.02511886431509579,1,0.4774894880001739
84,129,FarLowWide,0.03,0.25,0.5,0.03981071705534971,1,0.3956321409996235
84,130,FarHighNarrow,0.2,0.15,0.1,0.01995262314968879,0,0.4509709199992358
84,131,ThreeLinesControl,0.0,0.0,0.1,0.01995262314968879,1,0.5028613089998544
84,132,ThreeLinesControl,0.0,0.0,0.1,0.015848931924611127,0,0.4603244669997366
84,133,FarLowWide,0.03,0.25,0.5,0.031622776601683784,1,0.4338142990000051
84,134,FarHighWide,0.5,0.25,0.03,0.01995262314968879,0,0.445271466000122
84,135,FarLowNarrow,0.1,0.15,0.2,0.01995262314968879,0,0.44348111799990875
84,136,FarLowWide,0.03,0.25,0.5,0.02511886431509579,0,0.34570607300065603
84,137,FarHighNarrow,0.2,0.15,0.1,0.025118864315095794,0,0.3963061389995346
84,138,ThreeLinesControl,0.0,0.0,0.1,0.01995262314968879,0,0.5148921509999127
84,139,Constant,0.1,0.1,0.1,0.025118864315095794,0,0.8089964939999845
84,140,Constant,0.1,0.1,0.1,0.031622776601683784,0,0.5018521119991419
84,141,ThreeLinesControl,0.0,0.0,0.1,0.025118864315095794,0,0.4998804469996685
84,142,ThreeLinesControl,0.0,0.0,0.1,0.031622776601683784,0,0.41022116700059996
84,143,Constant,0.1,0.1,0.1,0.03981071705534971,1,0.48075893099940004
84,144,FarHighNarrow,0.2,0.15,0.1,0.031622776601683784,1,0.4307270899998912
84,145,FarLowWide,0.03,0.25,0.5,0.031622776601683784,1,0.3892686059998596
84,146,FarLowWide,0.03,0.25,0.5,0.02511886431509579,0,0.6913190620007299
84,147,Constant_null,0.1,0.1,0.1,0.05011872336272722,1,0.5065055690001827
84,148,ThreeLinesControl,0.0,0.0,0.1,0.03981071705534971,1,0.454405892000068
84,149,FarHighNarrow,0.2,0.15,0.1,0.02511886431509579,1,0.42842814499999804
84,150,FarLowWide,0.03,0.25,0.5,0.031622776601683784,0,0.5996949550008139
84,151,FarLowNarrow,0.1,0.15,0.2,0.025118864315095794,1,0.6057092070004728
84,152,FarLowWide,0.03,0.25,0.5,0.03981071705534971,1,0.9472774879995995
84,153,FarLowNarrow,0.1,0.15,0.2,0.01995262314968879,1,0.5350389880004514
84,154,FarLowWide,0.03,0.25,0.5,0.031622776601683784,0,0.44410760999926424
84,155,ThreeLinesControl,0.0,0.0,0.1,0.031622776601683784,1,0.41834405200006586
84,156,FarHighWide,0.5,0.25,0.03,0.025118864315095794,1,0.4165545860005295
84,157,FarHighNarrow,0.2,0.15,0.1,0.01995262314968879,1,0.4788263740001639
84,158,Constant,0.1,0.1,0.1,0.031622776601683784,1,0.4446763899995858
84,159,ThreeLinesControl,0.0,0.0,0.1,0.02511886431509579,1,0.4750946819995079
84,160,FarHighNarrow,0.2,0.15,0.1,0.015848931924611127,0,0.5930704990005324
84,161,FarHighNarrow,0.2,0.15,0.1,0.01995262314968879,0,0.6317827760003638
84,162,FarHighWide,0.5,0.25,0.03,0.01995262314968879,0,0.5176849949993994
84,163,FarHighNarrow_null,0.2,0.15,0.1,0.06309573444801932,1,0.6109624950004218
84,164,FarHighNarrow_null,0.2,0.15,0.1,0.05011872336272722,1,0.47077887100022053
84,165,FarHighNarrow,0.2,0.15,0.1,0.025118864315095794,1,0.46870690600007947
84,166,Constant_null,0.1,0.1,0.1,0.03981071705534971,1,0.5201525009997567
84,167,FarHighWide,0.5,0.25,0.03,0.025118864315095794,1,0.6462599930000579
84,168,ThreeLinesControl,0.0,0.0,0.1,0.01995262314968879,1,0.7239599289996477
84,169,FarHighNarrow,0.2,0.15,0.1,0.01995262314968879,0,0.687420197999927
84,170,FarLowNarrow,0.1,0.15,0.2,0.015848931924611127,0,0.5176311499999429
84,171,FarLowNarrow,0.1,0.15,0.2,0.01995262314968879,0,0.49159779399997205
84,172,FarLowWide,0.03,0.25,0.5,0.03981071705534971,1,0.3927627590001066
84,173,FarLowNarrow,0.1,0.15,0.2,0.025118864315095794,1,0.41513035799926
84,174,ThreeLinesControl,0.0,0.0,0.1,0.015848931924611127,0,0.5175357769994662
84,175,FarLowWide_null,0.03,0.25,0.5,0.05011872336272722,1,0.49152621000030194
84,176,Constant,0.1,0.1,0.1,0.02511886431509579,1,0.5774786580004729
84,177,Constant_null,0.1,0.1,0.1,0.031622776601683784,1,0.6717081249998955
84,178,FarHighNarrow,0.2,0.15,0.1,0.025118864315095794,1,0.5101967930004321
84,179,ThreeLinesControl,0.0,0.0,0.1,0.01995262314968879,0,0.44546188399999664
84,180,FarLowNarrow,0.1,0.15,0.2,0.01995262314968879,0,0.4000605769997492
84,181,FarLowWide,0.03,0.25,0.5,0.031622776601683784,1,0.4701966390002781
84,182,FarHighNarrow,0.2,0.15,0.1,0.01995262314968879,1,0.6843522429999211
84,183,FarHighNarrow,0.2,0.15,0.1,0.015848931924611127,0,0.5276188059997367
84,184,Constant,0.1,0.1,0.1,0.01995262314968879,0,0.5178088239999852
84,185,FarLowNarrow,0.1,0.15,0.2,0.025118864315095794,0,0.24963691199991445
84,186,FarHighWide,0.5,0.25,0.03,0.01995262314968879,0,0.5030283569994936
84,187,Constant,0.1,0.1,0.1,0.025118864315095794,1,0.46117849400070554
84,188,FarLowNarrow,0.1,0.15,0.2,0.031622776601683784,1,0.5153965689996767
84,189,FarLowNarrow,0.1,0.15,0.2,0.02511886431509579,1,0.36966614100037987
84,190,FarHighWide,0.5,0.25,0.03,0.025118864315095794,1,0.4235219780002808
84,191,Constant,0.1,0.1,0.1,0.01995262314968879,1,0.49232184900029097
84,192,FarLowWide,0.03,0.25,0.5,0.02511886431509579,0,0.6107959880000635
84,193,FarLowWide,0.03,0.25,0.5,0.031622776601683784,1,0.5290839270001015
84,194,FarHighWide,0.5,0.25,0.03,0.01995262314968879,1,0.44707322000067506
84,195,FarLowNarrow_null,0.1,0.15,0.2,0.06309573444801932,1,0.5346530460001304
84,196,FarLowNarrow_null,0.1,0.15,0.2,0.05011872336272722,1,0.47341491899987886
84,197,ThreeLinesControl,0.0,0.0,0.1,0.025118864315095794,1,0.7836279579996699
84,198,FarLowNarrow,0.1,0.15,0.2,0.01995262314968879,0,0.5338452770001823
84,199,FarLowNarrow,0.1,0.15,0.2,0.025118864315095794,1,0.5768648920002306
84,200,FarHighWide_null,0.5,0.25,0.03,0.06309573444801932,1,0.566120819000389
84,201,FarHighWide,0.5,0.25,0.03,0.015848931924611127,1,0.571877026999573
84,202,ThreeLinesControl,0.0,0.0,0.1,0.01995262314968879,0,0.5362725779996254
84,203,FarLowWide_null,0.03,0.25,0.5,0.03981071705534971,1,0.37434605799990095
84,204,FarHighNarrow,0.2,0.15,0.1,0.01995262314968879,1,0.5958380540005237
84,205,FarLowNarrow_null,0.1,0.15,0.2,0.03981071705534971,1,0.618748097000207
84,206,FarHighNarrow,0.2,0.15,0.1,0.015848931924611127,0,0.5691239540001334
84,207,ThreeLinesControl,0.0,0.0,0.1,0.025118864315095794,0,0.5580356779992144
84,208,FarHighNarrow,0.2,0.15,0.1,0.01995262314968879,0,0.7644898580001609
84,209,Constant,0.1,0.1,0.1,0.015848931924611127,0,0.7713609639995411
84,210,Constant,0.1,0.1,0.1,0.01995262314968879,0,0.5540444420003041
84,211,FarLowWide,0.03,0.25,0.5,0.02511886431509579,0,0.34385242400003335
84,212,ThreeLinesControl,0.0,0.0,0.1,0.031622776601683784,1,0.5307842749998599
84,213,FarLowNarrow,0.1,0.15,0.2,0.01995262314968879,0,0.6647304919997623
84,214,FarLowNarrow,0.1,0.15,0.2,0.025118864315095794,0,1.0231347220005773
84,215,ThreeLinesControl,0.0,0.0,0.1,0.02511886431509579,0,0.4981857029997627
84,216,FarHighWide,0.5,0.25,0.03,0.012589254117941666,0,0.4800023729994791
84,217,FarHighWide,0.5,0.25,0.03,0.015848931924611127,0,0.39847820599970873
84,218,FarLowNarrow,0.1,0.15,0.2,0.031622776601683784,0,0.5628467899996394
84,219,FarHighWide,0.5,0.25,0.03,0.01995262314968879,0,0.48862079799982894
84,220,ThreeLinesControl,0.0,0.0,0.1,0.031622776601683784,0,0.5829213979995984
84,221,ThreeLinesControl,0.0,0.0,0.1,0.03981071705534971,1,0.46813559099973645
84,222,FarHighWide,0.5,0.25,0.03,0.025118864315095794,0,0.5623748269999851
84,223,FarHighNarrow,0.2,0.15,0.1,0.025118864315095794,0,0.536405681999895
84,224,FarHighWide,0.5,0.25,0.03,0.031622776601683784,1,0.6945124690000739
84,225,ThreeLinesControl,0.0,0.0,0.1,0.031622776601683784,0,0.659905759999674
84,226,FarHighWide,0.5,0.25,0.03,0.02511886431509579,0,0.6272792959998696
84,227,ThreeLinesControl,0.0,0.0,0.1,0.03981071705534971,1,0.6637302529998124
84,228,FarLowWide,0.03,0.25,0.5,0.031622776601683784,0,0.4944729790004203
84,229,ThreeLinesControl,0.0,0.0,0.1,0.031622776601683784,1,0.6103692420001607
84,230,FarLowWide,0.03,0.25,0.5,0.03981071705534971,0,0.6319959160000508
84,231,Constant,0.1,0.1,0.1,0.025118864315095794,1,0.5716832039997826
84,232,FarLowNarrow_null,0.1,0.15,0.2,0.031622776601683784,1,0.5617370749996553
84,233,FarHighNarrow,0.2,0.15,0.1,0.031622776601683784,1,0.6229902489994856
84,234,FarLowNarrow,0.1,0.15,0.2,0.03981071705534971,1,0.52407015100016
84,235,FarLowNarrow,0.1,0.15,0.2,0.031622776601683784,1,0.6502905979996285
84,236,ThreeLinesControl,0.0,0.0,0.1,0.02511886431509579,1,0.7593431730001612
84,237,ThreeLinesControl,0.0,0.0,0.1,0.01995262314968879,0,0.6373926839996784
84,238,FarHighWide,0.5,0.25,0.03,0.031622776601683784,1,0.5798276539999279
84,239,ThreeLinesControl,0.0,0.0,0.1,0.025118864315095794,1,0.7058789009997781
84,240,FarLowNarrow,0.1,0.15,0.2,0.02511886431509579,0,0.644845728999826
84,241,FarLowWide,0.03,0.25,0.5,0.05011872336272721,1,0.48313466499985225
84,242,FarHighNarrow,0.2,0.15,0.1,0.02511886431509579,0,0.414095363999877
84,243,FarLowNarrow,0.1,0.15,0.2,0.031622776601683784,0,0.32420866299980844
84,244,Constant_null,0.1,0.1,0.1,0.02511886431509579,1,0.38533288600046944
84,245,ThreeLinesControl,0.0,0.0,0.1,0.01995262314968879,0,0.348313237000184
84,246,Constant,0.1,0.1,0.1,0.01995262314968879,0,0.3784349499992459
84,247,Constant,0.1,0.1,0.1,0.025118864315095794,1,0.5528943560002517
84,248,FarLowNarrow,0.1,0.15,0.2,0.03981071705534971,1,0.46995074400001613
84,249,FarLowNarrow,0.1,0.15,0.2,0.031622776601683784,1,0.4442682019998756
84,250,FarLowWide,0.03,0.25,0.5,0.03981071705534971,1,0.40106241700050305
84,251,FarHighWide,0.5,0.25,0.03,0.02511886431509579,1,0.4953175119999287
84,252,FarHighWide,0.5,0.25,0.03,0.01995262314968879,0,0.7735177429995019
84,253,FarLowNarrow,0.1,0.15,0.2,0.02511886431509579,0,0.3568564610004614
84,254,Constant,0.1,0.1,0.1,0.01995262314968879,0,0.3403288509998674
84,255,ThreeLinesControl,0.0,0.0,0.1,0.025118864315095794,0,99
84,256,Constant,0.1,0.1,0.1,0.025118864315095794,1,0.5432342520007296
84,257,FarLowWide,0.03,0.25,0.5,0.031622776601683784,0,0.6133428700004515
84,258,ThreeLinesControl,0.0,0.0,0.1,0.031622776601683784,0,0.42457453400038503
84,259,ThreeLinesControl,0.0,0.0,0.1,0.03981071705534971,1,0.6455509420002272
84,260,ThreeLinesControl,0.0,0.0,0.1,0.031622776601683784,0,0.7719076180001139
84,261,ThreeLinesControl,0.0,0.0,0.1,0.03981071705534971,1,0.711962794000101
84,262,Constant,0.1,0.1,0.1,0.01995262314968879,0,0.8049620359997789
84,263,FarHighNarrow,0.2,0.15,0.1,0.031622776601683784,0,0.6913693910000802
84,264,FarLowWide,0.03,0.25,0.5,0.03981071705534971,0,0.8080336570001236
84,265,FarHighNarrow,0.2,0.15,0.1,0.03981071705534971,1,0.4384870690000753
84,266,FarHighNarrow,0.2,0.15,0.1,0.031622776601683784,1,0.2526173000005656
84,267,FarLowNarrow_null,0.1,0.15,0.2,0.02511886431509579,1,0.6027429020005002
84,268,FarLowWide,0.03,0.25,0.5,0.05011872336272721,1,0.4489638989998639
84,269,FarHighWide,0.5,0.25,0.03,0.025118864315095794,1,0.5996945040005812
84,270,FarHighWide,0.5,0.25,0.03,0.01995262314968879,1,0.46131875300034153
84,271,ThreeLinesControl,0.0,0.0,0.1,0.031622776601683784,1,0.4528300189995207
84,272,ThreeLinesControl,0.0,0.0,0.1,0.02511886431509579,1,0.44854314399981376
84,273,FarLowWide,0.03,0.25,0.5,0.03981071705534971,1,0.4387282640000194
84,274,FarHighWide,0.5,0.25,0.03,0.015848931924611127,0,0.5648990479994609
84,275,FarLowNarrow,0.1,0.15,0.2,0.031622776601683784,1,0.4000719650002793
84,276,FarLowNarrow,0.1,0.15,0.2,0.02511886431509579,1,0.558140873999946
84,277,FarHighWide,0.5,0.25,0.03,0.01995262314968879,0,0.6892502170003354
84,278,Constant,0.1,0.1,0.1,0.025118864315095794,0,0.8794255390002945
84,279,FarHighNarrow,0.2,0.15,0.1,0.02511886431509579,1,0.7886524069999723
84,280,FarLowWide,0.03,0.25,0.5,0.031622776601683784,1,0.9375608439995631
84,281,FarHighNarrow,0.2,0.15,0.1,0.01995262314968879,0,0.7436736649997329
84,282,FarHighNarrow,0.2,0.15,0.1,0.025118864315095794,0,0.49409494399969844
84,283,FarHighNarrow,0.2,0.15,0.1,0.031622776601683784,1,0.4038482309997562
84,284,FarHighNarrow,0.2,0.15,0.1,0.02511886431509579,1,0.45023171699995146
84,285,FarLowNarrow,0.1,0.15,0.2,0.01995262314968879,1,0.4073115279998092
84,286,FarLowNarrow,0.1,0.15,0.2,0.015848931924611127,1,0.2471736500001498
84,287,Constant,0.1,0.1,0.1,0.031622776601683784,0,0.5089434550000078
84,288,ThreeLinesControl,0.0,0.0,0.1,0.01995262314968879,0,0.5767060809994291
84,289,FarHighWide,0.5,0.25,0.03,0.025118864315095794,1,0.4548009889995228
84,290,FarLowNarrow,0.1,0.15,0.2,0.012589254117941666,0,0.5488723689995822
84,291,FarLowWide,0.03,0.25,0.5,0.02511886431509579,0,0.4963558119998197
84,292,ThreeLinesControl,0.0,0.0,0.1,0.025118864315095794,1,0.39754039400031616
84,293,FarHighNarrow,0.2,0.15,0.1,0.01995262314968879,0,0.4355663829992409
84,294,FarLowNarrow,0.1,0.15,0.2,0.015848931924611127,0,0.6629673729994465
84,295,FarLowWide,0.03,0.25,0.5,0.031622776601683784,0,0.4774069720006082
84,296,Constant,0.1,0.1,0.1,0.03981071705534971,1,0.5461057070006063
84,297,FarLowNarrow,0.1,0.15,0.2,0.01995262314968879,0,0.44811138400018535
84,298,Constant,0.1,0.1,0.1,0.031622776601683784,1,0.4384530140005154
84,299,FarLowWide,0.03,0.25,0.5,0.03981071705534971,1,0.5321925380003449
84,300,FarLowNarrow,0.1,0.15,0.2,0.025118864315095794,0,0.7867532899999787
84,301,FarHighWide,0.5,0.25,0.03,0.01995262314968879,0,0.6970092770006886
84,302,Constant,0.1,0.1,0.1,0.02511886431509579,0,99
84,303,FarLowNarrow,0.1,0.15,0.2,0.031622776601683784,0,0.23726349900061905
84,304,FarHighNarrow,0.2,0.15,0.1,0.025118864315095794,0,0.524510792000001
84,305,ThreeLinesControl,0.0,0.0,0.1,0.01995262314968879,0,0.5043795629999295
84,306,FarHighWide_null,0.5,0.25,0.03,0.05011872336272722,1,0.45456551799998124
84,307,FarHighNarrow,0.2,0.15,0.1,0.031622776601683784,1,0.4977440180000485
84,308,ThreeLinesControl,0.0,0.0,0.1,0.025118864315095794,1,0.5440386720001698
84,309,ThreeLinesControl,0.0,0.0,0.1,0.01995262314968879,0,0.43786991799970565
84,310,FarLowWide,0.03,0.25,0.5,0.031622776601683784,1,0.5053725200004919
84,311,FarHighNarrow,0.2,0.15,0.1,0.02511886431509579,1,0.6943048290004299
84,312,FarHighNarrow,0.2,0.15,0.1,0.01995262314968879,1,0.7243403460006448
84,313,FarHighWide,0.5,0.25,0.03,0.025118864315095794,0,0.6986468160002914
84,314,ThreeLinesControl,0.0,0.0,0.1,0.025118864315095794,0,0.8328239270003905
84,315,FarLowNarrow_null,0.1,0.15,0.2,0.01995262314968879,1,0.6871021560000372
84,316,FarLowWide,0.03,0.25,0.5,0.02511886431509579,1,0.8278586040005393
84,317,Constant,0.1,0.1,0.1,0.031622776601683784,1,0.5383500289999574
84,318,FarLowNarrow,0.1,0.15,0.2,0.03981071705534971,1,0.4416579959997762
84,319,FarLowNarrow,0.1,0.15,0.2,0.031622776601683784,1,0.5676407000000836
84,320,FarLowWide,0.03,0.25,0.5,0.01995262314968879,1,0.5029422590005197
84,321,ThreeLinesControl,0.0,0.0,0.1,0.031622776601683784,1,0.569493789000262
84,322,FarHighNarrow,0.2,0.15,0.1,0.015848931924611127,1,0.6397294179996607
84,323,FarHighNarrow,0.2,0.15,0.1,0.012589254117941666,0,0.7547468060001847
84,324,FarHighNarrow,0.2,0.15,0.1,0.015848931924611127,1,0.6332724830008374
84,325,FarLowNarrow,0.1,0.15,0.2,0.02511886431509579,0,0.8714558009996836
84,326,FarLowNarrow,0.1,0.15,0.2,0.031622776601683784,1,0.6346235959999831
84,327,FarLowWide,0.03,0.25,0.5,0.015848931924611127,0,0.8325632400001268
84,328,FarLowWide,0.03,0.25,0.5,0.01995262314968879,1,0.6708535200004917
84,329,Constant,0.1,0.1,0.1,0.02511886431509579,0,0.6129296139997678
84,330,FarLowNarrow,0.1,0.15,0.2,0.02511886431509579,0,0.5302318610001748
84,331,Constant,0.1,0.1,0.1,0.031622776601683784,0,99
84,332,FarHighNarrow,0.2,0.15,0.1,0.012589254117941666,0,0.5261026299995137
84,333,FarLowWide,0.03,0.25,0.5,0.015848931924611127,0,0.44383976300014183
84,334,FarHighNarrow,0.2,0.15,0.1,0.015848931924611127,1,0.5308865339993645
84,335,FarHighNarrow,0.2,0.15,0.1,0.012589254117941666,0,0.5222001750007621
84,336,FarLowNarrow,0.1,0.15,0.2,0.031622776601683784,1,0.5364329819994964
84,337,Constant,0.1,0.1,0.1,0.03981071705534971,1,0.9950626499994542
84,338,FarHighNarrow,0.2,0.15,0.1,0.015848931924611127,0,0.4724456280000595
84,339,FarHighNarrow_null,0.2,0.15,0.1,0.03981071705534971,1,0.4545845940001527
84,340,FarLowWide,0.03,0.25,0.5,0.01995262314968879,0,0.3375164130002304
84,341,FarLowWide,0.03,0.25,0.5,0.025118864315095794,1,0.4637589570002092
84,342,Constant_null,0.1,0.1,0.1,0.01995262314968879,1,0.43499596399942675
84,343,FarHighNarrow,0.2,0.15,0.1,0.01995262314968879,0,0.5849055150001732
84,344,FarLowWide,0.03,0.25,0.5,0.01995262314968879,0,0.42318011299994396
84,345,Constant_null,0.1,0.1,0.1,0.015848931924611127,1,0.4694426910000402
84,346,FarLowNarrow,0.1,0.15,0.2,0.02511886431509579,0,0.41159923400027765
84,347,FarLowNarrow,0.1,0.15,0.2,0.031622776601683784,1,0.5777631920000204
84,348,FarLowNarrow,0.1,0.15,0.2,0.02511886431509579,0,0.42373098799998843
84,349,FarHighNarrow,0.2,0.15,0.1,0.025118864315095794,1,0.4845823390005535
84,350,FarLowWide,0.03,0.25,0.5,0.025118864315095794,0,0.4831283640005495
84,351,FarHighWide,0.5,0.25,0.03,0.031622776601683784,0,0.5936760410004354
84,352,FarHighNarrow,0.2,0.15,0.1,0.01995262314968879,0,0.2885009669998908
84,353,FarHighWide,0.5,0.25,0.03,0.03981071705534971,1,0.5155774639997617
84,354,FarHighNarrow,0.2,0.15,0.1,0.025118864315095794,1,0.4257350600000791
84,355,Constant,0.1,0.1,0.1,0.031622776601683784,1,0.423690089000047
84,356,FarHighNarrow,0.2,0.15,0.1,0.01995262314968879,0,0.7069354750001366
84,357,FarLowWide,0.03,0.25,0.5,0.031622776601683784,0,0.409086847999788
84,358,FarLowNarrow,0.1,0.15,0.2,0.031622776601683784,0,0.26230844700057787
84,359,FarLowNarrow,0.1,0.15,0.2,0.03981071705534971,0,0.5871659459999137
84,360,FarLowNarrow,0.1,0.15,0.2,0.05011872336272721,1,0.5234395739998945
84,361,FarLowNarrow,0.1,0.15,0.2,0.03981071705534971,0,0.45709837899994454
84,362,FarLowWide,0.03,0.25,0.5,0.03981071705534971,0,99
84,363,ThreeLinesControl,0.0,0.0,0.1,0.02511886431509579,0,0.45955788799983566
84,364,FarLowWide,0.03,0.25,0.5,0.05011872336272721,0,99
84,365,Constant,0.1,0.1,0.1,0.02511886431509579,1,0.42792010599987407
84,366,FarHighNarrow,0.2,0.15,0.1,0.025118864315095794,1,0.5627919160006059
84,367,FarHighWide_null,0.5,0.25,0.03,0.03981071705534971,1,0.5038107829996079
84,368,FarLowWide,0.03,0.25,0.5,0.0630957344480193,1,0.4682298410007206
84,369,Constant,0.1,0.1,0.1,0.01995262314968879,1,0.4181676159996641
84,370,FarLowNarrow,0.1,0.15,0.2,0.05011872336272721,1,0.4005192150007133
84,371,FarLowNarrow,0.1,0.15,0.2,0.03981071705534971,1,0.35858814399944094
84,372,FarHighWide,0.5,0.25,0.03,0.031622776601683784,1,0.42070781199981866
84,373,Constant_null,0.1,0.1,0.1,0.012589254117941666,1,0.4428950920000716
84,374,FarLowNarrow,0.1,0.15,0.2,0.031622776601683784,1,0.5359142670004076
84,375,FarHighNarrow,0.2,0.15,0.1,0.01995262314968879,1,0.4861995430001116
84,376,FarHighNarrow,0.2,0.15,0.1,0.015848931924611127,1,0.4912905460005277
84,377,FarHighWide,0.5,0.25,0.03,0.02511886431509579,1,0.601435111999308
84,378,FarHighNarrow,0.2,0.15,0.1,0.012589254117941666,1,0.5753749489995243
84,379,FarHighWide,0.5,0.25,0.03,0.01995262314968879,1,0.538873180000337
84,380,Constant,0.1,0.1,0.1,0.015848931924611127,1,0.5767225960007636
84,381,FarLowNarrow,0.1,0.15,0.2,0.02511886431509579,1,0.4229245059996174
84,382,ThreeLinesControl,0.0,0.0,0.1,0.031622776601683784,1,0.5223195120006494
84,383,ThreeLinesControl,0.0,0.0,0.1,0.02511886431509579,1,0.43235165500027506
84,384,FarHighNarrow,0.2,0.15,0.1,0.009999999999999995,1,0.4039024519997838
84,385,FarHighWide,0.5,0.25,0.03,0.015848931924611127,0,0.6424582879999434
84,386,FarLowNarrow,0.1,0.15,0.2,0.01995262314968879,1,0.6009199469999658
84,387,FarLowWide,0.03,0.25,0.5,0.050118723362727206,1,0.5099384750001263
84,388,ThreeLinesControl,0.0,0.0,0.1,0.01995262314968879,1,0.4998331639999378
84,389,Constant,0.1,0.1,0.1,0.012589254117941666,0,0.5302048679996005
84,390,FarLowWide,0.03,0.25,0.5,0.039810717055349706,0,0.3844559990002381
84,391,FarHighNarrow,0.2,0.15,0.1,0.00794328234724281,0,0.43853310700069414
84,392,FarLowWide,0.03,0.25,0.5,0.050118723362727206,1,0.4837111070000901
84,393,ThreeLinesControl_null,0.0,0.0,0.1,0.05011872336272722,1,0.47399270300047647
84,394,FarHighWide,0.5,0.25,0.03,0.01995262314968879,1,0.4798948699999528
84,395,FarLowWide,0.03,0.25,0.5,0.039810717055349706,1,0.4170801059999576
84,396,FarHighNarrow,0.2,0.15,0.1,0.009999999999999995,1,0.5434571639998467
84,397,FarLowWide,0.03,0.25,0.5,0.03162277660168378,1,0.5095390489996134
84,398,FarLowWide,0.03,0.25,0.5,0.025118864315095787,1,0.5768131780005206
84,399,ThreeLinesControl,0.0,0.0,0.1,0.015848931924611127,1,0.46276410700011184
84,400,Constant,0.1,0.1,0.1,0.015848931924611127,1,0.47480572599943116
84,401,FarLowNarrow,0.1,0.15,0.2,0.015848931924611127,1,0.4733589099996607
84,402,FarLowWide,0.03,0.25,0.5,0.019952623149688785,1,0.4870871490002173
84,403,Constant,0.1,0.1,0.1,0.012589254117941666,0,0.7175171220005723
84,404,ThreeLinesControl,0.0,0.0,0.1,0.012589254117941666,0,0.587459385999864
84,405,FarLowNarrow,0.1,0.15,0.2,0.012589254117941666,0,0.7698369780000576
84,406,FarLowWide,0.03,0.25,0.5,0.015848931924611124,1,0.553135119000217
84,407,Constant,0.1,0.1,0.1,0.015848931924611127,0,0.6310734610005966
84,408,FarLowNarrow,0.1,0.15,0.2,0.015848931924611127,0,0.581117605000145
84,409,FarLowNarrow,0.1,0.15,0.2,0.01995262314968879,0,0.5226520059995892
84,410,FarHighWide_null,0.5,0.25,0.03,0.031622776601683784,1,0.5685330839996823
84,411,FarHighWide,0.5,0.25,0.03,0.015848931924611127,0,0.45952955999928236
84,412,Constant,0.1,0.1,0.1,0.01995262314968879,0,0.5458569160000479
84,413,ThreeLinesControl,0.0,0.0,0.1,0.015848931924611127,0,0.5358531890005906
84,414,FarLowNarrow,0.1,0.15,0.2,0.025118864315095794,0,0.40311836099954235
84,415,FarLowNarrow,0.1,0.15,0.2,0.031622776601683784,0,0.32105406899972877
84,416,FarHighNarrow_null,0.2,0.15,0.1,0.031622776601683784,1,0.5675568110000313
84,417,FarLowWide,0.03,0.25,0.5,0.012589254117941663,0,0.4673835229996257
84,418,ThreeLinesControl,0.0,0.0,0.1,0.01995262314968879,0,0.8174775199995565
84,419,FarLowWide,0.03,0.25,0.5,0.015848931924611124,0,0.631664389999969
84,420,FarLowNarrow_null,0.1,0.15,0.2,0.015848931924611127,1,0.3975963189996037
84,421,FarHighWide_null,0.5,0.25,0.03,0.02511886431509579,1,0.3561783329996615
84,422,FarLowWide,0.03,0.25,0.5,0.019952623149688785,0,0.4103476789996421
84,423,FarLowNarrow,0.1,0.15,0.2,0.03981071705534971,1,0.7376587329999893
84,424,Constant,0.1,0.1,0.1,0.025118864315095794,1,0.6876091639996957
84,425,FarLowNarrow,0.1,0.15,0.2,0.031622776601683784,1,0.5725141150005584
84,426,FarLowNarrow,0.1,0.15,0.2,0.02511886431509579,0,0.47484022499975254
84,427,ThreeLinesControl,0.0,0.0,0.1,0.025118864315095794,0,0.8319778400000359
84,428,ThreeLinesControl,0.0,0.0,0.1,0.031622776601683784,1,0.5471035079999638
84,429,FarLowNarrow,0.1,0.15,0.2,0.031622776601683784,1,0.6411530729992592
84,430,ThreeLinesControl,0.0,0.0,0.1,0.02511886431509579,1,0.4283140009993076
84,431,ThreeLinesControl,0.0,0.0,0.1,0.01995262314968879,0,0.7784529170003225
84,432,FarHighNarrow,0.2,0.15,0.1,0.00794328234724281,0,0.7288023340006475
84,433,FarHighNarrow,0.2,0.15,0.1,0.009999999999999995,0,1.1739168990006874
84,434,FarHighNarrow,0.2,0.15,0.1,0.012589254117941666,0,0.7720130019997669
84,435,FarHighNarrow,0.2,0.15,0.1,0.015848931924611127,1,0.7782163430001674
84,436,FarHighWide,0.5,0.25,0.03,0.01995262314968879,0,0.8082330449997244
84,437,FarHighNarrow_null,0.2,0.15,0.1,0.02511886431509579,0,0.7895745750001879
84,438,FarHighWide_null,0.5,0.25,0.03,0.01995262314968879,1,0.5808628839995436
84,439,ThreeLinesControl,0.0,0.0,0.1,0.025118864315095794,1,0.9150579699999071
84,440,ThreeLinesControl,0.0,0.0,0.1,0.01995262314968879,0,1.0904936999995698
84,441,ThreeLinesControl,0.0,0.0,0.1,0.025118864315095794,1,0.7408433139999033
84,442,FarLowWide,0.03,0.25,0.5,0.025118864315095787,0,0.6190046120000261
84,443,ThreeLinesControl,0.0,0.0,0.1,0.01995262314968879,0,0.49717538799995964
84,444,FarHighWide,0.5,0.25,0.03,0.025118864315095794,0,0.613080414000251
84,445,FarLowWide,0.03,0.25,0.5,0.03162277660168378,0,0.8826304459998937
84,446,FarLowNarrow,0.1,0.15,0.2,0.02511886431509579,1,0.6248734179998792
84,447,FarHighNarrow,0.2,0.15,0.1,0.012589254117941666,0,99
84,448,Constant_null,0.1,0.1,0.1,0.009999999999999995,1,0.49815766799929406
84,449,FarHighNarrow,0.2,0.15,0.1,0.015848931924611127,0,0.6391868519995114
84,450,FarLowNarrow,0.1,0.15,0.2,0.01995262314968879,0,0.44543651699950715
84,451,FarHighNarrow,0.2,0.15,0.1,0.01995262314968879,0,0.2914992589994654
84,452,FarLowWide,0.03,0.25,0.5,0.039810717055349706,0,0.4177650009996796
84,453,FarLowWide,0.03,0.25,0.5,0.050118723362727206,1,0.6773678019999352
84,454,FarHighWide,0.5,0.25,0.03,0.031622776601683784,0,0.8201134159999128
84,455,FarLowWide,0.03,0.25,0.5,0.039810717055349706,1,0.682371205999516
84,456,Constant,0.1,0.1,0.1,0.01995262314968879,1,0.6893783999994412
84,457,FarLowNarrow,0.1,0.15,0.2,0.025118864315095794,1,0.7173826680000275
84,458,ThreeLinesControl,0.0,0.0,0.1,0.025118864315095794,1,0.755480840999553
84,459,FarHighNarrow,0.2,0.15,0.1,0.025118864315095794,0,0.4808217040008458
84,460,FarLowNarrow,0.1,0.15,0.2,0.01995262314968879,0,0.556849871999475
84,461,FarHighNarrow,0.2,0.15,0.1,0.031622776601683784,0,99
84,462,ThreeLinesControl,0.0,0.0,0.1,0.01995262314968879,1,0.6319379460001073
84,463,FarHighNarrow,0.2,0.15,0.1,0.03981071705534971,0,0.46724622500005353
84,464,FarHighWide,0.5,0.25,0.03,0.03981071705534971,0,0.481512592999934
84,465,FarLowNarrow,0.1,0.15,0.2,0.025118864315095794,0,0.4956450709996716
84,466,ThreeLinesControl,0.0,0.0,0.1,0.015848931924611127,0,0.6609045040004276
84,467,FarHighWide,0.5,0.25,0.03,0.05011872336272721,1,0.690946045999226
84,468,FarHighNarrow,0.2,0.15,0.1,0.05011872336272721,1,0.6810916470003576
84,469,Constant,0.1,0.1,0.1,0.015848931924611127,0,99
84,470,ThreeLinesControl,0.0,0.0,0.1,0.01995262314968879,0,0.6371766719994412
84,471,FarHighNarrow,0.2,0.15,0.1,0.03981071705534971,1,0.8918167150004592
84,472,Constant_null,0.1,0.1,0.1,0.00794328234724281,1,0.4829749790005735
84,473,FarHighNarrow,0.2,0.15,0.1,0.031622776601683784,1,0.5850171160000173
84,474,FarHighNarrow,0.2,0.15,0.1,0.02511886431509579,1,0.492645318000541
84,475,FarHighNarrow,0.2,0.15,0.1,0.01995262314968879,1,0.4751628880003409
84,476,Constant,0.1,0.1,0.1,0.01995262314968879,1,0.42222802299966133
84,477,FarLowWide,0.03,0.25,0.5,0.03162277660168378,1,0.42058134699982475
84,478,FarLowWide,0.03,0.25,0.5,0.025118864315095787,0,0.42648807400018995
84,479,FarHighWide,0.5,0.25,0.03,0.03981071705534971,1,0.45384856599957857
84,480,FarLowWide,0.03,0.25,0.5,0.03162277660168378,0,0.5586607639997965
84,481,FarLowWide,0.03,0.25,0.5,0.039810717055349706,0,0.3971526659997835
84,482,FarLowNarrow,0.1,0.15,0.2,0.031622776601683784,1,0.6341985290000594
84,483,ThreeLinesControl,0.0,0.0,0.1,0.025118864315095794,1,0.6164935290007634
84,484,FarHighNarrow,0.2,0.15,0.1,0.015848931924611127,0,0.5357300280002164
84,485,FarHighNarrow,0.2,0.15,0.1,0.01995262314968879,1,0.5428597189993525
84,486,Constant,0.1,0.1,0.1,0.015848931924611127,0,0.44170170899997174
84,487,FarLowWide,0.03,0.25,0.5,0.050118723362727206,1,0.5361891150005249
84,488,FarLowNarrow,0.1,0.15,0.2,0.02511886431509579,1,0.4670636190003279
84,489,FarLowWide_null,0.03,0.25,0.5,0.031622776601683784,1,0.449343998000586
84,490,FarLowNarrow,0.1,0.15,0.2,0.01995262314968879,1,0.4633297289992697
84,491,FarHighNarrow,0.2,0.15,0.1,0.015848931924611127,0,0.4825596949995088
84,492,Constant,0.1,0.1,0.1,0.01995262314968879,0,0.6324913759999617
84,493,Constant,0.1,0.1,0.1,0.025118864315095794,0,0.5268685149994781
84,494,ThreeLinesControl,0.0,0.0,0.1,0.01995262314968879,0,0.39692227900013677
84,495,FarHighNarrow,0.2,0.15,0.1,0.01995262314968879,1,0.529859414999919
84,496,FarHighNarrow,0.2,0.15,0.1,0.015848931924611127,0,0.4880281850000756
84,497,FarLowNarrow_null,0.1,0.15,0.2,0.012589254117941666,1,0.4304271629998766
84,498,Constant_null,0.1,0.1,0.1,0.0063095734448019285,1,0.30851571899984265
84,499,FarLowNarrow,0.1,0.15,0.2,0.015848931924611127,0,0.26727500000015425
84,500,FarHighNarrow,0.2,0.15,0.1,0.01995262314968879,0,0.5222336329998143
84,501,FarLowNarrow,0.1,0.15,0.2,0.01995262314968879,0,0.712162900000294
84,502,FarLowWide,0.03,0.25,0.5,0.039810717055349706,0,1.1082179080003698
84,503,FarHighWide,0.5,0.25,0.03,0.031622776601683784,0,0.6171754380002312
84,504,FarLowNarrow_null,0.1,0.15,0.2,0.009999999999999995,1,0.4553972119992977
84,505,FarHighNarrow,0.2,0.15,0.1,0.025118864315095794,1,0.5386699780001436
84,506,FarLowNarrow,0.1,0.15,0.2,0.025118864315095794,1,0.48046970600080385
84,507,FarHighWide,0.5,0.25,0.03,0.03981071705534971,1,0.35691834399949585
84,508,FarLowNarrow,0.1,0.15,0.2,0.01995262314968879,0,0.5468651740002315
84,509,FarHighNarrow,0.2,0.15,0.1,0.01995262314968879,1,0.8401086949997989
84,510,FarHighNarrow,0.2,0.15,0.1,0.015848931924611127,1,0.5663227940003708
84,511,FarHighWide,0.5,0.25,0.03,0.031622776601683784,1,0.666197643000487
84,512,Constant,0.1,0.1,0.1,0.031622776601683784,1,0.3847328989995731
84,513,FarHighNarrow,0.2,0.15,0.1,0.012589254117941666,1,0.6629636100005882
84,514,FarHighNarrow,0.2,0.15,0.1,0.009999999999999995,1,0.7568466450002234
84,515,FarHighNarrow,0.2,0.15,0.1,0.00794328234724281,1,0.5701277370008029
84,516,FarLowNarrow,0.1,0.15,0.2,0.025118864315095794,1,0.4405153829993651
84,517,FarHighWide,0.5,0.25,0.03,0.02511886431509579,1,0.5916825320000498
84,518,ThreeLinesControl,0.0,0.0,0.1,0.025118864315095794,1,0.5942577650002931
84,519,Constant,0.1,0.1,0.1,0.02511886431509579,1,0.5368797749997611
84,520,Constant,0.1,0.1,0.1,0.01995262314968879,1,0.49490920700009156
84,521,ThreeLinesControl,0.0,0.0,0.1,0.01995262314968879,0,0.4581364890000259
84,522,FarHighWide,0.5,0.25,0.03,0.01995262314968879,1,0.6560269740002695
84,523,FarHighNarrow,0.2,0.15,0.1,0.0063095734448019285,0,0.7023847039999964
84,524,ThreeLinesControl,0.0,0.0,0.1,0.025118864315095794,1,0.6585048209999513
84,525,ThreeLinesControl,0.0,0.0,0.1,0.01995262314968879,0,99
84,526,ThreeLinesControl_null,0.0,0.0,0.1,0.03981071705534971,1,0.5735876539993114
84,527,FarLowWide,0.03,0.25,0.5,0.050118723362727206,0,0.40383612000005087
84,528,Constant,0.1,0.1,0.1,0.015848931924611127,0,0.818003239999598
84,529,FarLowNarrow,0.1,0.15,0.2,0.01995262314968879,0,0.5361146370005372
84,530,FarLowNarrow,0.1,0.15,0.2,0.025118864315095794,0,0.542432498999915
84,531,FarHighWide,0.5,0.25,0.03,0.015848931924611127,0,0.708373851000033
84,532,FarHighWide,0.5,0.25,0.03,0.01995262314968879,0,0.6750835049997477
84,533,FarHighWide,0.5,0.25,0.03,0.025118864315095794,0,0.7693175710001015
84,534,FarLowWide,0.03,0.25,0.5,0.0630957344480193,1,0.6120131370007584
84,535,FarHighNarrow,0.2,0.15,0.1,0.00794328234724281,1,0.6739498809993165
84,536,FarHighNarrow,0.2,0.15,0.1,0.0063095734448019285,0,0.5043309399998179
84,537,FarLowNarrow,0.1,0.15,0.2,0.031622776601683784,1,0.5154189539998697
84,538,FarLowWide,0.03,0.25,0.5,0.050118723362727206,1,0.5684156659999644
84,539,ThreeLinesControl,0.0,0.0,0.1,0.025118864315095794,1,1.0625748849997763
84,540,FarHighWide,0.5,0.25,0.03,0.031622776601683784,1,0.7148881060002168
84,541,FarHighWide,0.5,0.25,0.03,0.02511886431509579,0,0.9206534750001083
84,542,FarHighNarrow,0.2,0.15,0.1,0.00794328234724281,0,0.6549211299998206
84,543,ThreeLinesControl,0.0,0.0,0.1,0.01995262314968879,0,0.5895197809995807
84,544,FarHighWide,0.5,0.25,0.03,0.031622776601683784,1,0.7236647009995067
84,545,FarHighNarrow,0.2,0.15,0.1,0.009999999999999995,0,1.0017317090005236
84,546,ThreeLinesControl,0.0,0.0,0.1,0.025118864315095794,0,0.7841726360002212
84,547,FarLowNarrow_null,0.1,0.15,0.2,0.00794328234724281,0,99
84,548,FarLowNarrow,0.1,0.15,0.2,0.02511886431509579,0,0.5954810820003331
84,549,ThreeLinesControl,0.0,0.0,0.1,0.031622776601683784,1,0.5384846120005022
84,550,ThreeLinesControl,0.0,0.0,0.1,0.02511886431509579,1,0.7510926959994322
84,551,FarLowNarrow,0.1,0.15,0.2,0.031622776601683784,1,0.4341454570003407
84,552,FarHighNarrow,0.2,0.15,0.1,0.012589254117941666,0,0.5365341279994027
84,553,ThreeLinesControl,0.0,0.0,0.1,0.01995262314968879,1,0.4436341149994405
84,554,FarHighWide_null,0.5,0.25,0.03,0.015848931924611127,1,0.4178857930000959
84,555,FarHighWide,0.5,0.25,0.03,0.02511886431509579,1,0.5199917270001606
84,556,FarLowWide,0.03,0.25,0.5,0.039810717055349706,1,0.5251114069997129
84,557,FarHighNarrow,0.2,0.15,0.1,0.015848931924611127,1,0.45035850499971275
84,558,FarLowWide,0.03,0.25,0.5,0.03162277660168378,0,0.8003518860004988
84,559,FarHighNarrow,0.2,0.15,0.1,0.012589254117941666,0,0.3907127800002854
84,560,FarLowNarrow,0.1,0.15,0.2,0.02511886431509579,0,0.3889267039994593
84,561,FarHighNarrow,0.2,0.15,0.1,0.015848931924611127,1,0.706923132999691
84,562,FarLowWide,0.03,0.25,0.5,0.039810717055349706,1,0.4809586950004814
84,563,FarHighWide,0.5,0.25,0.03,0.01995262314968879,1,0.30323102900001686
84,564,Constant,0.1,0.1,0.1,0.01995262314968879,1,0.37382944999990286
84,565,FarLowNarrow,0.1,0.15,0.2,0.031622776601683784,1,0.5304628530002446
84,566,FarHighWide,0.5,0.25,0.03,0.015848931924611127,0,0.6574000330001581
84,567,FarHighWide,0.5,0.25,0.03,0.01995262314968879,0,0.5648916139998619
84,568,FarHighWide,0.5,0.25,0.03,0.025118864315095794,0,0.7231530070002918
84,569,FarLowNarrow,0.1,0.15,0.2,0.02511886431509579,0,0.5362985020001361
84,570,FarLowWide,0.03,0.25,0.5,0.03162277660168378,0,0.3714434240000628
84,571,FarHighWide_null,0.5,0.25,0.03,0.012589254117941666,1,0.593406443999811
84,572,FarLowNarrow,0.1,0.15,0.2,0.031622776601683784,0,0.45359838400054286
84,573,FarLowNarrow,0.1,0.15,0.2,0.03981071705534971,1,0.5955904270003884
84,574,FarHighNarrow,0.2,0.15,0.1,0.012589254117941666,0,0.641473804999805
84,575,FarLowWide,0.03,0.25,0.5,0.039810717055349706,1,0.7283394469995983
84,576,FarLowWide,0.03,0.25,0.5,0.03162277660168378,0,0.5901929900001051
84,577,FarHighNarrow_null,0.2,0.15,0.1,0.031622776601683784,1,0.5404600330002722
84,578,FarLowNarrow,0.1,0.15,0.2,0.031622776601683784,0,99
84,579,FarLowWide,0.03,0.25,0.5,0.039810717055349706,0,0.48925533600049675
84,580,Constant_null,0.1,0.1,0.1,0.005011872336272719,1,0.45731985499969596
84,581,Constant,0.1,0.1,0.1,0.015848931924611127,1,0.6609246520001761
84,582,FarHighNarrow,0.2,0.15,0.1,0.015848931924611127,1,0.5233622189998641
84,583,FarLowWide,0.03,0.25,0.5,0.050118723362727206,1,0.5340539019998687
84,584,Constant,0.1,0.1,0.1,0.012589254117941666,0,99
84,585,FarLowNarrow,0.1,0.15,0.2,0.03981071705534971,0,0.450578833999316
84,586,Constant,0.1,0.1,0.1,0.015848931924611127,0,0.5576630929999737
84,587,FarHighNarrow,0.2,0.15,0.1,0.012589254117941666,1,0.8039133029997174
84,588,ThreeLinesControl,0.0,0.0,0.1,0.015848931924611127,1,0.577976994999517
84,589,FarHighNarrow,0.2,0.15,0.1,0.009999999999999995,0,0.518971225000314
84,590,FarLowNarrow,0.1,0.15,0.2,0.05011872336272721,1,0.6443385370002943
84,591,FarLowWide,0.03,0.25,0.5,0.039810717055349706,1,0.7060597489999054
84,592,FarLowWide,0.03,0.25,0.5,0.03162277660168378,1,1.0006472180002675
84,593,Constant,0.1,0.1,0.1,0.01995262314968879,1,0.7586366929999713
84,594,FarHighNarrow,0.2,0.15,0.1,0.012589254117941666,1,0.7824780549999559
84,595,FarLowWide,0.03,0.25,0.5,0.025118864315095787,1,1.2517422270002498
84,596,FarHighNarrow,0.2,0.15,0.1,0.009999999999999995,0,0.4982139059993642
84,597,FarHighNarrow,0.2,0.15,0.1,0.012589254117941666,0,0.37521728100000473
84,598,FarLowNarrow,0.1,0.15,0.2,0.03981071705534971,1,0.5175211929999932
84,599,FarHighNarrow,0.2,0.15,0.1,0.015848931924611127,0,0.5925159349999376
84,600,Constant,0.1,0.1,0.1,0.015848931924611127,0,0.5629468070001167
84,601,FarHighWide,0.5,0.25,0.03,0.031622776601683784,0,0.471981161000258
84,602,Constant,0.1,0.1,0.1,0.01995262314968879,0,0.35798337100004574
84,603,FarHighWide_null,0.5,0.25,0.03,0.009999999999999995,1,0.2279405429999315
84,604,FarLowNarrow,0.1,0.15,0.2,0.031622776601683784,0,0.2904297459999725
84,605,Constant,0.1,0.1,0.1,0.025118864315095794,1,0.5848660029996609
84,606,FarLowNarrow,0.1,0.15,0.2,0.03981071705534971,1,0.4802708850002091
84,607,FarLowWide,0.03,0.25,0.5,0.019952623149688785,0,0.5582804040004703
84,608,Constant,0.1,0.1,0.1,0.01995262314968879,0,0.5550524560003396
84,609,ThreeLinesControl_null,0.0,0.0,0.1,0.031622776601683784,1,0.3520334989998446
84,610,ThreeLinesControl,0.0,0.0,0.1,0.012589254117941666,0,0.3663166239994098
84,611,ThreeLinesControl,0.0,0.0,0.1,0.015848931924611127,0,0.4177147549999063
84,612,FarLowNarrow_null,0.1,0.15,0.2,0.009999999999999995,1,0.42370723099975294
84,613,ThreeLinesControl,0.0,0.0,0.1,0.01995262314968879,0,0.4348615549997703
84,614,FarLowNarrow,0.1,0.15,0.2,0.031622776601683784,0,0.4729023710006004
84,615,FarHighWide,0.5,0.25,0.03,0.03981071705534971,1,0.6231353509992914
84,616,FarLowWide,0.03,0.25,0.5,0.025118864315095787,0,0.6363395669995953
84,617,FarHighWide_null,0.5,0.25,0.03,0.00794328234724281,1,0.7863620400003128
84,618,FarHighNarrow,0.2,0.15,0.1,0.01995262314968879,0,0.7283647589993052
84,619,ThreeLinesControl,0.0,0.0,0.1,0.025118864315095794,1,0.6547780720002265
84,620,Constant,0.1,0.1,0.1,0.025118864315095794,0,0.6634222089996911
84,621,FarLowWide_null,0.03,0.25,0.5,0.02511886431509579,1,0.41107081200061657
84,622,ThreeLinesControl,0.0,0.0,0.1,0.01995262314968879,0,0.6184087589999763
84,623,FarLowNarrow,0.1,0.15,0.2,0.03981071705534971,1,0.5684147749998374
84,624,FarLowNarrow,0.1,0.15,0.2,0.031622776601683784,1,0.33248195400028635
84,625,ThreeLinesControl,0.0,0.0,0.1,0.025118864315095794,1,0.34669606700026634
84,626,ThreeLinesControl,0.0,0.0,0.1,0.01995262314968879,0,0.8330364120001832
84,627,FarHighNarrow,0.2,0.15,0.1,0.025118864315095794,1,0.8120438159994592
84,628,FarLowWide,0.03,0.25,0.5,0.03162277660168378,1,0.48907020800015744
84,629,FarHighNarrow,0.2,0.15,0.1,0.01995262314968879,0,0.5511830620007458
84,630,FarHighWide,0.5,0.25,0.03,0.031622776601683784,0,0.6904129340000509
84,631,FarHighWide_null,0.5,0.25,0.03,0.0063095734448019285,1,0.4723666840000078
84,632,FarHighWide,0.5,0.25,0.03,0.03981071705534971,1,0.5893527849993916
84,633,Constant,0.1,0.1,0.1,0.031622776601683784,1,0.7316589820002264
84,634,ThreeLinesControl,0.0,0.0,0.1,0.025118864315095794,0,99
84,635,Constant,0.1,0.1,0.1,0.02511886431509579,0,99
84,636,Constant,0.1,0.1,0.1,0.031622776601683784,1,0.5020517709999694
84,637,FarLowWide,0.03,0.25,0.5,0.025118864315095787,0,0.47545149699999456
84,638,FarLowNarrow,0.1,0.15,0.2,0.02511886431509579,0,0.3227674370000386
84,639,FarHighNarrow,0.2,0.15,0.1,0.025118864315095794,0,0.45735040599993226
84,640,FarHighWide,0.5,0.25,0.03,0.031622776601683784,1,0.5361764569997831
84,641,FarHighWide,0.5,0.25,0.03,0.02511886431509579,1,0.6109318200005873
84,642,FarLowNarrow,0.1,0.15,0.2,0.031622776601683784,0,0.6410181920000468
84,643,FarHighWide,0.5,0.25,0.03,0.01995262314968879,0,0.8043806830000904
84,644,FarHighNarrow,0.2,0.15,0.1,0.031622776601683784,0,0.554171848999431
84,645,FarHighWide,0.5,0.25,0.03,0.025118864315095794,0,1.1207818139992014
84,646,ThreeLinesControl,0.0,0.0,0.1,0.031622776601683784,1,0.8678588900002069
84,647,FarHighWide,0.5,0.25,0.03,0.031622776601683784,1,0.6177959460001148
84,648,Constant,0.1,0.1,0.1,0.02511886431509579,0,0.8150137820002783
84,649,FarLowWide,0.03,0.25,0.5,0.03162277660168378,1,0.6691626490000999
84,650,FarLowNarrow_null,0.1,0.15,0.2,0.00794328234724281,1,0.4755146309998963
84,651,FarLowNarrow,0.1,0.15,0.2,0.03981071705534971,1,0.5296704929996849
84,652,FarLowWide_null,0.03,0.25,0.5,0.01995262314968879,1,0.43194829000003665
84,653,FarHighNarrow,0.2,0.15,0.1,0.03981071705534971,1,0.45370781700057705
84,654,FarHighNarrow,0.2,0.15,0.1,0.031622776601683784,1,0.5084281700001156
84,655,FarHighWide,0.5,0.25,0.03,0.02511886431509579,1,0.434245694999845
84,656,FarHighNarrow,0.2,0.15,0.1,0.02511886431509579,1,0.41737669099984487
84,657,Constant,0.1,0.1,0.1,0.031622776601683784,1,0.42850495699985913
84,658,FarHighWide,0.5,0.25,0.03,0.01995262314968879,1,0.5945907679997617
84,659,FarHighNarrow,0.2,0.15,0.1,0.01995262314968879,0,0.525737842000126
84,660,FarLowWide,0.03,0.25,0.5,0.025118864315095787,0,0.4520232909999322
84,661,FarLowWide,0.03,0.25,0.5,0.03162277660168378,1,0.4259021739999298
84,662,FarHighNarrow,0.2,0.15,0.1,0.025118864315095794,1,0.4131249709998883
84,663,FarHighNarrow,0.2,0.15,0.1,0.01995262314968879,1,0.39533927400043467
84,664,ThreeLinesControl,0.0,0.0,0.1,0.02511886431509579,1,0.5773577679992741
84,665,FarLowWide,0.03,0.25,0.5,0.025118864315095787,0,0.6235332239994023
84,666,FarHighWide,0.5,0.25,0.03,0.015848931924611127,0,0.5497513279997293
84,667,FarHighNarrow,0.2,0.15,0.1,0.015848931924611127,0,0.3229231069999514
84,668,FarLowNarrow,0.1,0.15,0.2,0.031622776601683784,0,0.30496131500058254
84,669,Constant,0.1,0.1,0.1,0.02511886431509579,0,0.41388426999947114
84,670,FarLowWide,0.03,0.25,0.5,0.03162277660168378,1,0.5407959419999315
84,671,ThreeLinesControl,0.0,0.0,0.1,0.01995262314968879,0,0.5555885679996209
84,672,FarLowWide,0.03,0.25,0.5,0.025118864315095787,0,0.5390609440000844
84,673,FarHighNarrow,0.2,0.15,0.1,0.01995262314968879,0,0.5098949720004384
84,674,ThreeLinesControl,0.0,0.0,0.1,0.025118864315095794,0,0.3397925689996555
84,675,FarLowNarrow,0.1,0.15,0.2,0.03981071705534971,1,0.3540732469991781
84,676,FarHighNarrow,0.2,0.15,0.1,0.025118864315095794,1,0.637307461999626
84,677,Constant_null,0.1,0.1,0.1,0.00398107170553497,1,0.7462227680007345
84,678,FarHighNarrow_null,0.2,0.15,0.1,0.02511886431509579,1,0.4863421019999805
84,679,FarHighNarrow,0.2,0.15,0.1,0.01995262314968879,0,0.1958797550005329
84,680,FarLowWide,0.03,0.25,0.5,0.03162277660168378,0,0.2507957530006024
84,681,FarHighNarrow,0.2,0.15,0.1,0.025118864315095794,0,0.4168956569992588
84,682,FarLowNarrow,0.1,0.15,0.2,0.031622776601683784,1,0.5670492320004996
84,683,FarLowWide,0.03,0.25,0.5,0.039810717055349706,1,0.4439602170004946
84,684,FarLowWide,0.03,0.25,0.5,0.03162277660168378,1,0.5234714500002156
84,685,FarHighNarrow_null,0.2,0.15,0.1,0.01995262314968879,1,0.5217389980007283
84,686,Constant,0.1,0.1,0.1,0.031622776601683784,0,0.4939924379996228
84,687,FarHighWide,0.5,0.25,0.03,0.01995262314968879,0,0.4119886750004298
84,688,FarHighNarrow,0.2,0.15,0.1,0.031622776601683784,1,0.44327185100064526
84,689,ThreeLinesControl_null,0.0,0.0,0.1,0.02511886431509579,1,0.48624069499965117
84,690,Constant,0.1,0.1,0.1,0.03981071705534971,1,0.5404529609995734
84,691,FarLowNarrow,0.1,0.15,0.2,0.02511886431509579,1,0.402421527000115
84,692,ThreeLinesControl,0.0,0.0,0.1,0.031622776601683784,1,0.4376137489998655
84,693,FarHighWide,0.5,0.25,0.03,0.025118864315095794,1,0.3306002230001468
84,694,ThreeLinesControl,0.0,0.0,0.1,0.02511886431509579,0,0.4005384429992773
84,695,ThreeLinesControl_null,0.0,0.0,0.1,0.01995262314968879,1,0.3807703919992491
84,696,ThreeLinesControl_null,0.0,0.0,0.1,0.015848931924611127,1,0.4431915579998531
84,697,FarLowWide,0.03,0.25,0.5,0.025118864315095787,0,0.2813911180001014
84,698,FarHighNarrow,0.2,0.15,0.1,0.02511886431509579,0,0.4551647000007506
84,699,FarHighWide,0.5,0.25,0.03,0.01995262314968879,0,0.9417816240002139
84,700,FarHighNarrow,0.2,0.15,0.1,0.031622776601683784,1,0.8267532270001539
84,701,FarHighWide,0.5,0.25,0.03,0.025118864315095794,1,0.4487529739999445
84,702,FarHighNarrow,0.2,0.15,0.1,0.02511886431509579,1,0.2868621669995264
84,703,FarHighWide,0.5,0.25,0.03,0.01995262314968879,1,0.37374578599974484
84,704,FarHighNarrow,0.2,0.15,0.1,0.01995262314968879,1,0.5168848200000866
84,705,ThreeLinesControl,0.0,0.0,0.1,0.031622776601683784,1,0.643064036999931
84,706,FarLowWide,0.03,0.25,0.5,0.03162277660168378,1,0.41370006699980877
84,707,FarLowWide,0.03,0.25,0.5,0.025118864315095787,1,0.39581786600047053
84,708,ThreeLinesControl,0.0,0.0,0.1,0.02511886431509579,1,0.41471341099986603
84,709,FarLowWide,0.03,0.25,0.5,0.019952623149688785,0,0.4370856250006909
84,710,Constant,0.1,0.1,0.1,0.031622776601683784,1,0.5551223920001576
84,711,FarLowNarrow,0.1,0.15,0.2,0.01995262314968879,1,0.463507651999862
84,712,FarLowWide,0.03,0.25,0.5,0.025118864315095787,1,0.4613481500000489
84,713,ThreeLinesControl,0.0,0.0,0.1,0.01995262314968879,1,0.38774906100024964
84,714,Constant,0.1,0.1,0.1,0.02511886431509579,1,0.43285832600031426
84,715,ThreeLinesControl,0.0,0.0,0.1,0.015848931924611127,1,0.7188275230000727
84,716,FarHighNarrow,0.2,0.15,0.1,0.015848931924611127,0,0.61442080300003
84,717,Constant,0.1,0.1,0.1,0.01995262314968879,0,0.5723605229995883
84,718,FarHighNarrow,0.2,0.15,0.1,0.01995262314968879,0,0.81026330900022
84,719,Constant_null,0.1,0.1,0.1,0.0031622776601683772,1,0.37555688899919915
84,720,FarHighWide,0.5,0.25,0.03,0.015848931924611127,0,0.6015955599996232
84,721,FarLowNarrow,0.1,0.15,0.2,0.015848931924611127,0,0.37480589200004033
84,722,FarHighNarrow,0.2,0.15,0.1,0.025118864315095794,0,0.3000153359998876
84,723,FarLowNarrow,0.1,0.15,0.2,0.01995262314968879,0,0.3797115550005401
84,724,FarHighWide,0.5,0.25,0.03,0.01995262314968879,1,0.6655359939995833
84,725,Constant,0.1,0.1,0.1,0.025118864315095794,1,0.5083616740002981
84,726,Constant,0.1,0.1,0.1,0.01995262314968879,0,0.5456505880001714
84,727,FarLowWide,0.03,0.25,0.5,0.019952623149688785,1,0.5817164219997721
84,728,FarLowWide_null,0.03,0.25,0.5,0.015848931924611127,1,0.46674192899990885
84,729,FarHighNarrow,0.2,0.15,0.1,0.031622776601683784,1,0.5367064760002904
84,730,Constant,0.1,0.1,0.1,0.025118864315095794,0,0.5502989899996464
84,731,ThreeLinesControl,0.0,0.0,0.1,0.012589254117941666,0,0.45225075100006507
84,732,FarLowWide,0.03,0.25,0.5,0.015848931924611124,1,0.7374215029994957
84,733,FarLowNarrow,0.1,0.15,0.2,0.025118864315095794,1,0.4874866430000111
84,734,ThreeLinesControl,0.0,0.0,0.1,0.015848931924611127,1,0.48575220499969873
84,735,ThreeLinesControl,0.0,0.0,0.1,0.012589254117941666,0,0.693684905999362
84,736,FarHighWide,0.5,0.25,0.03,0.015848931924611127,0,0.7312798459997794
84,737,FarLowNarrow,0.1,0.15,0.2,0.01995262314968879,0,0.7375559829997655
84,738,FarLowNarrow,0.1,0.15,0.2,0.025118864315095794,1,0.5022994819992164
84,739,FarLowNarrow,0.1,0.15,0.2,0.01995262314968879,0,0.46055410799999663
84,740,FarHighNarrow,0.2,0.15,0.1,0.02511886431509579,1,0.5068099049994998
84,741,ThreeLinesControl_null,0.0,0.0,0.1,0.012589254117941666,1,0.34972957100035273
84,742,FarLowWide,0.03,0.25,0.5,0.012589254117941663,0,0.42800066899962985
84,743,FarLowWide_null,0.03,0.25,0.5,0.012589254117941666,1,0.48209164800027793
84,744,Constant,0.1,0.1,0.1,0.031622776601683784,0,0.5790305440004886
84,745,Constant,0.1,0.1,0.1,0.03981071705534971,0,0.6411522000007608
84,746,FarLowNarrow,0.1,0.15,0.2,0.025118864315095794,1,0.49445553699933953
84,747,FarLowWide,0.03,0.25,0.5,0.015848931924611124,0,0.8758298430002469
84,748,FarHighWide,0.5,0.25,0.03,0.01995262314968879,1,0.6348344339994583
84,749,FarLowNarrow,0.1,0.15,0.2,0.01995262314968879,0,0.567900168000051
84,750,ThreeLinesControl,0.0,0.0,0.1,0.015848931924611127,1,0.8459719550000955
84,751,FarHighWide_null,0.5,0.25,0.03,0.005011872336272719,1,0.5724126760005674
84,752,FarLowNarrow,0.1,0.15,0.2,0.025118864315095794,0,0.860070794999956
84,753,FarLowWide,0.03,0.25,0.5,0.019952623149688785,0,0.5537790219996168
84,754,ThreeLinesControl,0.0,0.0,0.1,0.012589254117941666,0,0.6220616179998615
84,755,ThreeLinesControl,0.0,0.0,0.1,0.015848931924611127,1,0.6037455529994986
84,756,FarLowWide,0.03,0.25,0.5,0.025118864315095787,0,0.6261970440000368
84,757,Constant,0.1,0.1,0.1,0.05011872336272721,0,0.43718965999960346
84,758,Constant,0.1,0.1,0.1,0.0630957344480193,0,0.618326870000601
84,759,FarHighNarrow,0.2,0.15,0.1,0.01995262314968879,0,0.3520941930000845
84,760,Constant,0.1,0.1,0.1,0.07943282347242812,1,0.6194860089999565
84,761,FarLowNarrow,0.1,0.15,0.2,0.031622776601683784,1,0.6975903219999964
84,762,FarHighWide,0.5,0.25,0.03,0.015848931924611127,0,0.9109719939997376
84,763,FarLowNarrow,0.1,0.15,0.2,0.02511886431509579,1,0.8537788050007293
84,764,FarLowWide,0.03,0.25,0.5,0.03162277660168378,0,0.715387044999261
84,765,ThreeLinesControl_null,0.0,0.0,0.1,0.009999999999999995,1,0.7215680070003145
84,766,ThreeLinesControl,0.0,0.0,0.1,0.012589254117941666,0,0.7756162420000692
84,767,FarLowNarrow_null,0.1,0.15,0.2,0.0063095734448019285,1,0.8688237010001103
84,768,Constant,0.1,0.1,0.1,0.0630957344480193,1,0.7172652369999923
84,769,FarLowNarrow,0.1,0.15,0.2,0.01995262314968879,1,0.5714487550003469
84,770,Constant,0.1,0.1,0.1,0.050118723362727206,1,0.6826898620001884
84,771,Constant,0.1,0.1,0.1,0.039810717055349706,1,0.2532271159998345
84,772,ThreeLinesControl,0.0,0.0,0.1,0.015848931924611127,0,0.6191430520002541
84,773,FarLowNarrow,0.1,0.15,0.2,0.015848931924611127,1,0.6144128490004732
84,774,Constant,0.1,0.1,0.1,0.03162277660168378,1,0.7331658869998137
84,775,Constant,0.1,0.1,0.1,0.025118864315095787,1,0.46709203200043703
84,776,Constant,0.1,0.1,0.1,0.019952623149688785,1,0.5420310520003113
84,777,FarLowNarrow_null,0.1,0.15,0.2,0.005011872336272719,1,0.6192140270004529
84,778,FarHighNarrow,0.2,0.15,0.1,0.025118864315095794,1,0.5143726400001469
84,779,ThreeLinesControl,0.0,0.0,0.1,0.01995262314968879,0,0.511537199000486
84,780,FarLowWide,0.03,0.25,0.5,0.039810717055349706,0,0.4455491369999436
84,781,FarHighWide,0.5,0.25,0.03,0.01995262314968879,0,0.4669254810005441
84,782,FarHighNarrow,0.2,0.15,0.1,0.01995262314968879,1,0.720899988000383
84,783,FarLowNarrow,0.1,0.15,0.2,0.012589254117941666,None,0.9429532859994652
84,784,FarHighNarrow,0.2,0.15,0.1,0.015848931924611127,None,0.7573781750006674
84,785,FarLowWide,0.03,0.25,0.5,0.050118723362727206,None,0.8442336709995288
84,786,Constant,0.1,0.1,0.1,0.015848931924611124,None,0.7628328190003231
84,787,ThreeLinesControl_null,0.0,0.0,0.1,0.00794328234724281,0,99
84,788,ThreeLinesControl,0.0,0.0,0.1,0.025118864315095794,0,0.9417259330002707
84,789,Constant,0.1,0.1,0.1,0.019952623149688785,0,0.5951104420000775
84,790,Constant,0.1,0.1,0.1,0.025118864315095787,1,0.5498737409998284
84,791,FarHighWide,0.5,0.25,0.03,0.025118864315095794,1,0.5324508909998258
84,792,FarHighWide,0.5,0.25,0.03,0.01995262314968879,1,0.46336652699937986
84,793,Constant,0.1,0.1,0.1,0.019952623149688785,1,0.4217008750001696
84,794,Constant,0.1,0.1,0.1,0.015848931924611124,0,0.5957032470005288
84,795,FarHighNarrow,0.2,0.15,0.1,0.01995262314968879,0,0.5125481840004795
84,796,FarLowWide,0.03,0.25,0.5,0.0630957344480193,1,0.4788573709993216
84,797,Constant,0.1,0.1,0.1,0.019952623149688785,0,0.4851284599999417
84,798,ThreeLinesControl,0.0,0.0,0.1,0.031622776601683784,0,0.4916113580002275
84,799,FarLowNarrow,0.1,0.15,0.2,0.015848931924611127,0,0.4813999509997302
84,800,FarHighNarrow,0.2,0.15,0.1,0.025118864315095794,1,0.45593127999927674
84,801,Constant,0.1,0.1,0.1,0.025118864315095787,1,0.6460280060000514
84,802,Constant,0.1,0.1,0.1,0.019952623149688785,1,0.6522475900001155
84,803,Constant,0.1,0.1,0.1,0.015848931924611124,1,0.5191280079998251
84,804,FarLowWide,0.03,0.25,0.5,0.050118723362727206,1,0.6772938899994188
84,805,FarHighWide,0.5,0.25,0.03,0.015848931924611127,0,0.603338387999429
84,806,FarLowWide,0.03,0.25,0.5,0.039810717055349706,0,0.6866567139995823
84,807,ThreeLinesControl,0.0,0.0,0.1,0.03981071705534971,0,0.724748245000228
84,808,ThreeLinesControl,0.0,0.0,0.1,0.05011872336272721,0,0.6317829989993697
84,809,FarLowWide,0.03,0.25,0.5,0.050118723362727206,0,1.0128853379992506
84,810,FarLowWide,0.03,0.25,0.5,0.0630957344480193,1,0.49921638000068924
84,811,FarHighWide,0.5,0.25,0.03,0.01995262314968879,1,0.5532795279996208
84,812,FarLowWide,0.03,0.25,0.5,0.050118723362727206,0,0.6954441200005022
84,813,FarLowNarrow,0.1,0.15,0.2,0.01995262314968879,1,0.613482128999749
84,814,FarHighWide,0.5,0.25,0.03,0.015848931924611127,0,0.7717470839997986
84,815,FarHighNarrow,0.2,0.15,0.1,0.01995262314968879,1,0.7529571960003523
84,816,FarHighWide,0.5,0.25,0.03,0.01995262314968879,0,0.6709487649995935
84,817,FarLowNarrow,0.1,0.15,0.2,0.015848931924611127,0,0.9332966570000281
84,818,FarLowNarrow_null,0.1,0.15,0.2,0.00398107170553497,1,0.4770055680000951
84,819,ThreeLinesControl,0.0,0.0,0.1,0.0630957344480193,1,0.4245522559995152
84,820,ThreeLinesControl,0.0,0.0,0.1,0.050118723362727206,1,0.3825823639999726
84,821,FarLowNarrow,0.1,0.15,0.2,0.01995262314968879,0,0.4598344440000801
84,822,FarLowNarrow,0.1,0.15,0.2,0.025118864315095794,1,0.5028377810003803
84,823,ThreeLinesControl,0.0,0.0,0.1,0.039810717055349706,1,0.5330468319998545
84,824,Constant,0.1,0.1,0.1,0.012589254117941663,0,0.5949493160005659
84,825,FarHighWide,0.5,0.25,0.03,0.025118864315095794,1,0.4699586460001228
84,826,FarLowWide,0.03,0.25,0.5,0.0630957344480193,1,0.6924300329992548
84,827,ThreeLinesControl_null,0.0,0.0,0.1,0.009999999999999995,1,0.5947903670003143
84,828,FarLowNarrow,0.1,0.15,0.2,0.01995262314968879,0,0.5686822159996154
84,829,Constant,0.1,0.1,0.1,0.015848931924611124,0,99
84,830,FarHighWide,0.5,0.25,0.03,0.01995262314968879,0,0.540036238000539
84,831,FarLowWide,0.03,0.25,0.5,0.050118723362727206,1,0.626285573000132
84,832,ThreeLinesControl,0.0,0.0,0.1,0.03162277660168378,1,0.504432168000676
84,833,ThreeLinesControl,0.0,0.0,0.1,0.025118864315095787,1,0.6788963190001596
84,834,FarHighWide,0.5,0.25,0.03,0.025118864315095794,0,0.8059941940000499
84,835,FarHighNarrow,0.2,0.15,0.1,0.015848931924611127,0,99
84,836,FarLowWide,0.03,0.25,0.5,0.039810717055349706,1,0.527952567000284
84,837,FarLowWide,0.03,0.25,0.5,0.03162277660168378,1,0.7182243759998528
84,838,FarLowNarrow,0.1,0.15,0.2,0.025118864315095794,0,99
84,839,FarHighNarrow,0.2,0.15,0.1,0.01995262314968879,0,0.7436201509999592
84,840,Constant,0.1,0.1,0.1,0.019952623149688785,0,0.4874230980003631
84,841,FarLowWide,0.03,0.25,0.5,0.025118864315095787,0,0.42168641300031595
84,842,FarLowNarrow,0.1,0.15,0.2,0.031622776601683784,0,0.37158627200005867
84,843,ThreeLinesControl,0.0,0.0,0.1,0.019952623149688785,0,0.47384300300018367
84,844,FarLowNarrow,0.1,0.15,0.2,0.03981071705534971,1,0.5348978660003922
84,845,FarHighNarrow,0.2,0.15,0.1,0.025118864315095794,0,0.4930589000005057
84,846,FarLowNarrow,0.1,0.15,0.2,0.031622776601683784,1,0.5233648269995683
84,847,FarHighWide,0.5,0.25,0.03,0.031622776601683784,1,0.617484773999422
84,848,FarLowWide,0.03,0.25,0.5,0.03162277660168378,0,0.6400096369998209
84,849,FarHighWide,0.5,0.25,0.03,0.02511886431509579,1,0.5477067170004375
84,850,FarLowWide,0.03,0.25,0.5,0.039810717055349706,0,0.6739496149994011
84,851,FarLowNarrow,0.1,0.15,0.2,0.02511886431509579,0,0.7919929930003491
84,852,FarLowWide,0.03,0.25,0.5,0.050118723362727206,1,0.8822863909999796
84,853,Constant,0.1,0.1,0.1,0.025118864315095787,0,0.6400988569994297
84,854,FarHighWide_null,0.5,0.25,0.03,0.00398107170553497,1,0.4782099300000482
84,855,ThreeLinesControl_null,0.0,0.0,0.1,0.00794328234724281,1,0.49041474999921775
84,856,FarHighWide,0.5,0.25,0.03,0.01995262314968879,0,0.6407650480005032
84,857,FarHighWide,0.5,0.25,0.03,0.025118864315095794,1,0.8867686379999213
84,858,FarLowNarrow,0.1,0.15,0.2,0.031622776601683784,1,0.4770059160000528
84,859,ThreeLinesControl,0.0,0.0,0.1,0.025118864315095787,0,0.39432458400006
84,860,ThreeLinesControl,0.0,0.0,0.1,0.03162277660168378,1,0.6234424609992857
84,861,FarHighWide,0.5,0.25,0.03,0.01995262314968879,1,0.5653881689995615
84,862,ThreeLinesControl,0.0,0.0,0.1,0.025118864315095787,1,0.4195370160005041
84,863,Constant,0.1,0.1,0.1,0.03162277660168378,1,0.6102917709995381
84,864,Constant,0.1,0.1,0.1,0.025118864315095787,1,0.37498317300014605
84,865,FarLowWide,0.03,0.25,0.5,0.039810717055349706,1,0.4543868709997696
84,866,FarHighNarrow_null,0.2,0.15,0.1,0.015848931924611127,1,0.41710916700048983
84,867,FarLowNarrow,0.1,0.15,0.2,0.02511886431509579,1,0.37532473800001753
84,868,FarLowNarrow,0.1,0.15,0.2,0.01995262314968879,0,0.44256118399971456
84,869,FarHighWide,0.5,0.25,0.03,0.015848931924611127,0,0.7768991160000951
84,870,ThreeLinesControl,0.0,0.0,0.1,0.019952623149688785,0,0.42269302800013975
84,871,Constant,0.1,0.1,0.1,0.019952623149688785,0,0.6671964429997388
84,872,FarHighNarrow_null,0.2,0.15,0.1,0.012589254117941666,1,0.2812354610005059
84,873,Constant,0.1,0.1,0.1,0.025118864315095787,1,0.4861039150000579
84,874,ThreeLinesControl,0.0,0.0,0.1,0.025118864315095787,0,0.37188401200000953
84,875,FarHighWide,0.5,0.25,0.03,0.01995262314968879,0,0.5225304200002938
84,876,FarHighNarrow,0.2,0.15,0.1,0.031622776601683784,1,0.4889035200003491
84,877,Constant_null,0.1,0.1,0.1,0.002511886431509578,1,0.3270007209994219
84,878,FarLowWide,0.03,0.25,0.5,0.03162277660168378,0,0.3090127149998807
84,879,FarHighWide,0.5,0.25,0.03,0.025118864315095794,0,0.22785672800000611
84,880,FarHighWide,0.5,0.25,0.03,0.031622776601683784,0,0.22710715999983222
84,881,ThreeLinesControl,0.0,0.0,0.1,0.03162277660168378,1,0.4634944750005161
84,882,FarHighNarrow,0.2,0.15,0.1,0.02511886431509579,1,0.4263090309996187
84,883,ThreeLinesControl,0.0,0.0,0.1,0.025118864315095787,1,0.4166176650005582
84,884,FarLowNarrow,0.1,0.15,0.2,0.025118864315095794,1,0.32674979900002654
84,885,FarLowNarrow,0.1,0.15,0.2,0.01995262314968879,0,0.33803005300069344
84,886,FarHighWide,0.5,0.25,0.03,0.03981071705534971,0,0.27220484600002237
84,887,FarLowWide,0.03,0.25,0.5,0.039810717055349706,1,0.3641015729999708
84,888,ThreeLinesControl_null,0.0,0.0,0.1,0.0063095734448019285,1,0.47417553200011753
84,889,FarHighNarrow,0.2,0.15,0.1,0.01995262314968879,1,0.592876953999621
84,890,FarHighWide,0.5,0.25,0.03,0.05011872336272721,1,0.42296688400074345
84,891,Constant,0.1,0.1,0.1,0.019952623149688785,0,0.4370122479995189
84,892,ThreeLinesControl,0.0,0.0,0.1,0.019952623149688785,0,0.3071888590002345
84,893,FarLowNarrow,0.1,0.15,0.2,0.025118864315095794,0,0.5292794420001883
84,894,FarLowWide,0.03,0.25,0.5,0.03162277660168378,1,0.3767844840003818
84,895,FarHighWide,0.5,0.25,0.03,0.03981071705534971,1,0.6365621080003621
84,896,ThreeLinesControl,0.0,0.0,0.1,0.025118864315095787,1,0.45863239400023303
84,897,FarLowNarrow,0.1,0.15,0.2,0.031622776601683784,1,0.39270141199995123
84,898,FarHighWide,0.5,0.25,0.03,0.031622776601683784,1,0.39585049800007255
84,899,FarLowWide,0.03,0.25,0.5,0.025118864315095787,1,0.8340542819996699
84,900,ThreeLinesControl,0.0,0.0,0.1,0.019952623149688785,1,0.46399185300015233
84,901,Constant_null,0.1,0.1,0.1,0.001995262314968878,1,0.37149617799968837
84,902,FarHighWide,0.5,0.25,0.03,0.02511886431509579,1,0.6256881780000185
84,903,FarLowNarrow,0.1,0.15,0.2,0.02511886431509579,1,0.5254019459998744
84,904,FarHighWide_null,0.5,0.25,0.03,0.0031622776601683772,1,0.5720172539995474
84,905,ThreeLinesControl_null,0.0,0.0,0.1,0.005011872336272719,1,0.449972314999286
84,906,FarHighWide_null,0.5,0.25,0.03,0.002511886431509578,1,0.4481306860006953
84,907,FarLowNarrow,0.1,0.15,0.2,0.01995262314968879,0,0.29442467399985617
84,908,FarHighWide,0.5,0.25,0.03,0.01995262314968879,0,0.32403351799985103
84,909,FarHighNarrow,0.2,0.15,0.1,0.015848931924611127,0,0.4414423349999197
84,910,FarHighNarrow,0.2,0.15,0.1,0.01995262314968879,0,0.28114520300005097
84,911,Constant,0.1,0.1,0.1,0.025118864315095787,0,0.3905664430003526
84,912,FarLowNarrow,0.1,0.15,0.2,0.025118864315095794,0,0.2599816809997719
84,913,ThreeLinesControl,0.0,0.0,0.1,0.015848931924611124,0,0.7383093400003418
84,914,FarHighNarrow,0.2,0.15,0.1,0.025118864315095794,1,0.5492839729995467
84,915,Constant,0.1,0.1,0.1,0.03162277660168378,1,0.5155080390004514
84,916,ThreeLinesControl,0.0,0.0,0.1,0.019952623149688785,1,0.5287731409998742
84,917,FarHighNarrow,0.2,0.15,0.1,0.01995262314968879,0,0.5799743770003261
84,918,Constant_null,0.1,0.1,0.1,0.0015848931924611121,1,0.4488817609999387
84,919,FarHighWide,0.5,0.25,0.03,0.025118864315095794,1,0.49519689900080266
84,920,ThreeLinesControl_null,0.0,0.0,0.1,0.00398107170553497,1,0.5802395359996808
84,921,FarHighNarrow_null,0.2,0.15,0.1,0.009999999999999995,1,0.4185218319998967
84,922,ThreeLinesControl,0.0,0.0,0.1,0.015848931924611124,0,0.4235876200000348
84,923,FarHighNarrow,0.2,0.15,0.1,0.025118864315095794,0,1.0295932649996757
84,924,FarLowWide,0.03,0.25,0.5,0.019952623149688785,0,0.3638813859997754
84,925,FarLowNarrow_null,0.1,0.15,0.2,0.0031622776601683772,1,0.22718633099975705
84,926,ThreeLinesControl,0.0,0.0,0.1,0.019952623149688785,0,0.19203351299984206
84,927,FarLowNarrow,0.1,0.15,0.2,0.031622776601683784,1,0.4956612979995043
84,928,ThreeLinesControl,0.0,0.0,0.1,0.025118864315095787,1,0.41946309200011456
84,929,ThreeLinesControl,0.0,0.0,0.1,0.019952623149688785,1,0.6256202370004758
84,930,ThreeLinesControl,0.0,0.0,0.1,0.015848931924611124,1,0.4728685089994542
84,931,FarLowNarrow,0.1,0.15,0.2,0.02511886431509579,0,0.3079273130006186
84,932,FarHighWide,0.5,0.25,0.03,0.01995262314968879,1,0.4731072310005402
84,933,FarLowWide,0.03,0.25,0.5,0.025118864315095787,1,0.4850191649993576
84,934,FarLowWide,0.03,0.25,0.5,0.019952623149688785,1,0.30715360100020916
84,935,Constant,0.1,0.1,0.1,0.025118864315095787,1,0.3681998649999514
84,936,FarLowNarrow,0.1,0.15,0.2,0.031622776601683784,1,0.3814855649998208
84,937,FarLowNarrow,0.1,0.15,0.2,0.02511886431509579,1,0.2275732779999089
84,938,FarLowWide,0.03,0.25,0.5,0.015848931924611124,1,0.5218959149997318
84,939,FarHighNarrow,0.2,0.15,0.1,0.031622776601683784,1,0.32802104499933193
84,940,FarLowNarrow,0.1,0.15,0.2,0.01995262314968879,1,0.34215795599993726
84,941,FarLowWide,0.03,0.25,0.5,0.012589254117941663,0,0.6762636149996979
84,942,FarLowNarrow,0.1,0.15,0.2,0.015848931924611127,0,0.6187485850005032
84,943,Constant_null,0.1,0.1,0.1,0.001258925411794166,0,0.7219083820000378
84,944,Constant,0.1,0.1,0.1,0.019952623149688785,0,99
84,945,FarHighWide_null,0.5,0.25,0.03,0.001995262314968878,1,0.8189199779999399
84,946,Constant,0.1,0.1,0.1,0.025118864315095787,0,0.9532383289997597
84,947,FarHighWide,0.5,0.25,0.03,0.015848931924611127,0,0.8202530839998872
84,948,FarHighNarrow,0.2,0.15,0.1,0.02511886431509579,1,0.5301514839993615
84,949,ThreeLinesControl,0.0,0.0,0.1,0.012589254117941663,0,0.7204780550000578
84,950,FarHighNarrow,0.2,0.15,0.1,0.01995262314968879,0,0.5637971099995411
84,951,Constant,0.1,0.1,0.1,0.03162277660168378,1,0.6020042760001161
84,952,Constant,0.1,0.1,0.1,0.025118864315095787,0,0.9510730369993325
84,953,FarHighNarrow,0.2,0.15,0.1,0.025118864315095794,1,0.7653178339996884
84,954,FarHighWide,0.5,0.25,0.03,0.01995262314968879,0,0.9792770409994773
84,955,Constant,0.1,0.1,0.1,0.03162277660168378,0,99
84,956,Constant,0.1,0.1,0.1,0.039810717055349706,1,0.783822123000391
84,957,FarLowNarrow,0.1,0.15,0.2,0.01995262314968879,0,0.557656367999698
84,958,ThreeLinesControl,0.0,0.0,0.1,0.015848931924611124,1,0.5399944110004071
84,959,FarHighNarrow,0.2,0.15,0.1,0.01995262314968879,1,0.37015350199999375
84,960,FarLowNarrow,0.1,0.15,0.2,0.025118864315095794,0,0.3618121109993808
84,961,FarHighWide_null,0.5,0.25,0.03,0.0015848931924611121,1,0.351771660999475
84,962,FarLowWide_null,0.03,0.25,0.5,0.009999999999999995,1,0.22997900099926483
84,963,FarLowWide,0.03,0.25,0.5,0.015848931924611124,0,0.377227335000498
84,964,ThreeLinesControl,0.0,0.0,0.1,0.012589254117941663,0,0.3431770260003759
84,965,FarLowWide,0.03,0.25,0.5,0.019952623149688785,0,0.30844250799964357
84,966,FarLowNarrow_null,0.1,0.15,0.2,0.002511886431509578,1,0.3045595490002597
84,967,Constant,0.1,0.1,0.1,0.03162277660168378,0,0.3333731960001387
84,968,ThreeLinesControl,0.0,0.0,0.1,0.015848931924611124,0,0.30778709900005197
84,969,FarLowNarrow,0.1,0.15,0.2,0.031622776601683784,0,0.4340298729994174
84,970,ThreeLinesControl,0.0,0.0,0.1,0.019952623149688785,0,0.2402393270003813
84,971,Constant,0.1,0.1,0.1,0.039810717055349706,1,0.43837651000012556
84,972,FarLowNarrow,0.1,0.15,0.2,0.03981071705534971,1,0.3795188819995019
84,973,FarHighNarrow_null,0.2,0.15,0.1,0.00794328234724281,1,0.44957141099985165
84,974,FarHighWide,0.5,0.25,0.03,0.025118864315095794,0,0.34393862599972636
84,975,FarHighWide,0.5,0.25,0.03,0.031622776601683784,0,0.31086676999984775
84,976,Constant,0.1,0.1,0.1,0.03162277660168378,1,0.5171605550003733
84,977,FarLowWide,0.03,0.25,0.5,0.025118864315095787,1,0.5292350390000138
84,978,FarHighNarrow,0.2,0.15,0.1,0.015848931924611127,1,0.454237068999646
84,979,ThreeLinesControl_null,0.0,0.0,0.1,0.0031622776601683772,1,0.3865005800007566
84,980,FarLowNarrow,0.1,0.15,0.2,0.031622776601683784,1,0.4477232780000122
84,981,FarLowWide_null,0.03,0.25,0.5,0.00794328234724281,1,0.6297150889995464
84,982,ThreeLinesControl_null,0.0,0.0,0.1,0.002511886431509578,1,0.552711850000378
84,983,FarLowWide_null,0.03,0.25,0.5,0.0063095734448019285,1,0.3429086739997729
84,984,FarLowWide,0.03,0.25,0.5,0.019952623149688785,0,0.36515348000011727
84,985,FarLowWide,0.03,0.25,0.5,0.025118864315095787,0,0.31550199599951156
84,986,ThreeLinesControl_null,0.0,0.0,0.1,0.001995262314968878,1,0.3055300570003965
84,987,FarHighWide_null,0.5,0.25,0.03,0.001258925411794166,1,0.39168938399961917
84,988,FarHighNarrow,0.2,0.15,0.1,0.012589254117941666,0,0.21367681099945912
84,989,FarLowNarrow,0.1,0.15,0.2,0.02511886431509579,0,0.22686359399995126
84,990,Constant,0.1,0.1,0.1,0.025118864315095787,0,0.3784049399992
84,991,Constant,0.1,0.1,0.1,0.03162277660168378,1,0.4482393160005813
84,992,FarHighWide,0.5,0.25,0.03,0.03981071705534971,1,0.3666366300003574
84,993,Constant,0.1,0.1,0.1,0.025118864315095787,1,0.3466574970007059
84,994,Constant,0.1,0.1,0.1,0.019952623149688785,1,0.20849658700080909
84,995,FarHighWide,0.5,0.25,0.03,0.031622776601683784,1,0.11584183699960704
84,996,Constant,0.1,0.1,0.1,0.015848931924611124,0,0.4900195520003763
84,997,FarLowWide,0.03,0.25,0.5,0.03162277660168378,0,0.20821786199940107
84,998,ThreeLinesControl,0.0,0.0,0.1,0.025118864315095787,1,0.45120871999915835
84,999,FarHighNarrow_null,0.2,0.15,0.1,0.0063095734448019285,1,0.3136053920006816
84,1000,FarHighWide,0.5,0.25,0.03,0.02511886431509579,1,0.4476420649998545
84,1001,FarLowWide_null,0.03,0.25,0.5,0.005011872336272719,1,0.3165170889997171
84,1002,FarLowNarrow,0.1,0.15,0.2,0.031622776601683784,0,0.24319636200016248
84,1003,FarHighNarrow,0.2,0.15,0.1,0.015848931924611127,0,0.35289838100015913
84,1004,FarHighNarrow,0.2,0.15,0.1,0.01995262314968879,0,0.2871402800001306
84,1005,FarHighWide,0.5,0.25,0.03,0.01995262314968879,1,0.48528778000036255
84,1006,Constant,0.1,0.1,0.1,0.019952623149688785,0,0.3953825250000591
84,1007,FarLowNarrow,0.1,0.15,0.2,0.03981071705534971,1,0.40195538900024985
84,1008,ThreeLinesControl,0.0,0.0,0.1,0.019952623149688785,1,0.4959256000001915
84,1009,FarHighWide,0.5,0.25,0.03,0.015848931924611127,0,0.43596377999983815
84,1010,FarLowNarrow,0.1,0.15,0.2,0.031622776601683784,1,0.6171655439993629
84,1011,FarHighNarrow_null,0.2,0.15,0.1,0.005011872336272719,1,0.6322162450005635
84,1012,FarHighWide,0.5,0.25,0.03,0.01995262314968879,0,0.7625420169997597
84,1013,FarHighNarrow_null,0.2,0.15,0.1,0.00398107170553497,1,0.3123749050000697
84,1014,FarHighWide,0.5,0.25,0.03,0.025118864315095794,0,0.5486161110002286
84,1015,FarHighWide,0.5,0.25,0.03,0.031622776601683784,0,99
84,1016,FarLowWide,0.03,0.25,0.5,0.039810717055349706,0,0.7130593189995125
84,1017,FarHighWide,0.5,0.25,0.03,0.03981071705534971,0,99
84,1018,FarHighWide,0.5,0.25,0.03,0.05011872336272721,1,0.5641669509996063
84,1019,FarHighNarrow,0.2,0.15,0.1,0.025118864315095794,1,0.4504564879998725
84,1020,FarLowWide_null,0.03,0.25,0.5,0.00398107170553497,1,0.560614462000558
84,1021,Constant,0.1,0.1,0.1,0.025118864315095787,0,1.2788652279996313
84,1022,ThreeLinesControl,0.0,0.0,0.1,0.015848931924611124,0,0.5643520769999668
84,1023,FarLowWide,0.03,0.25,0.5,0.050118723362727206,0,0.2913875080002981
84,1024,FarHighWide,0.5,0.25,0.03,0.03981071705534971,1,0.5372087840005406
84,1025,FarLowNarrow,0.1,0.15,0.2,0.02511886431509579,1,0.6128446650000114
84,1026,FarLowNarrow,0.1,0.15,0.2,0.01995262314968879,0,99
84,1027,FarHighNarrow,0.2,0.15,0.1,0.01995262314968879,0,0.39260728800036304
84,1028,FarLowNarrow,0.1,0.15,0.2,0.025118864315095794,1,0.5318405109992455
84,1029,FarHighWide,0.5,0.25,0.03,0.031622776601683784,0,0.6661239160002879
84,1030,ThreeLinesControl,0.0,0.0,0.1,0.019952623149688785,0,0.5201397380005801
84,1031,Constant,0.1,0.1,0.1,0.03162277660168378,1,0.47625976300059847
84,1032,FarLowWide,0.03,0.25,0.5,0.0630957344480193,1,0.35436410900001647
84,1033,FarLowWide,0.03,0.25,0.5,0.050118723362727206,1,0.3595140299994455
84,1034,FarLowNarrow,0.1,0.15,0.2,0.01995262314968879,1,0.3817914710007244
84,1035,FarHighWide,0.5,0.25,0.03,0.03981071705534971,0,99
84,1036,ThreeLinesControl,0.0,0.0,0.1,0.025118864315095787,1,0.6328246370003399
84,1037,ThreeLinesControl,0.0,0.0,0.1,0.019952623149688785,0,99
84,1038,FarHighWide,0.5,0.25,0.03,0.05011872336272721,1,0.4132310900004086
84,1039,FarHighNarrow,0.2,0.15,0.1,0.025118864315095794,0,99
84,1040,FarLowWide,0.03,0.25,0.5,0.039810717055349706,1,0.44957001300008415
84,1041,FarLowNarrow,0.1,0.15,0.2,0.015848931924611127,0,99
84,1042,FarLowNarrow,0.1,0.15,0.2,0.01995262314968879,0,0.506932993999726
84,1043,FarLowNarrow,0.1,0.15,0.2,0.025118864315095794,1,0.7130761099997471
84,1044,FarLowNarrow,0.1,0.15,0.2,0.01995262314968879,0,1.1961423739994643
84,1045,Constant,0.1,0.1,0.1,0.025118864315095787,1,0.553980543999387
84,1046,Constant,0.1,0.1,0.1,0.019952623149688785,0,0.7123806299996431
84,1047,Constant,0.1,0.1,0.1,0.025118864315095787,1,0.6205870499998127
84,1048,ThreeLinesControl,0.0,0.0,0.1,0.025118864315095787,0,0.6987293470001532
84,1049,ThreeLinesControl,0.0,0.0,0.1,0.03162277660168378,1,0.592921096000282
84,1050,Constant,0.1,0.1,0.1,0.019952623149688785,1,0.5021701649993702
84,1051,FarHighNarrow,0.2,0.15,0.1,0.031622776601683784,1,0.40530154699990817
84,1052,ThreeLinesControl,0.0,0.0,0.1,0.025118864315095787,1,0.4181948569994347
84,1053,Constant,0.1,0.1,0.1,0.015848931924611124,1,0.5203292450005392
84,1054,FarHighNarrow,0.2,0.15,0.1,0.02511886431509579,1,0.35840660000030766
84,1055,Constant,0.1,0.1,0.1,0.012589254117941663,0,0.5093553740007337
84,1056,Constant,0.1,0.1,0.1,0.015848931924611124,0,0.33895180099989375
84,1057,FarHighNarrow,0.2,0.15,0.1,0.01995262314968879,0,0.2576680479996867
84,1058,FarHighNarrow,0.2,0.15,0.1,0.025118864315095794,0,0.22843091999948228
84,1059,Constant,0.1,0.1,0.1,0.019952623149688785,0,0.482160876999842
84,1060,FarHighNarrow_null,0.2,0.15,0.1,0.0031622776601683772,1,0.5256840289994216
84,1061,FarLowWide,0.03,0.25,0.5,0.03162277660168378,0,0.5876141460003055
84,1062,FarLowWide,0.03,0.25,0.5,0.039810717055349706,0,99
84,1063,ThreeLinesControl,0.0,0.0,0.1,0.019952623149688785,0,0.461779215000206
84,1064,FarLowWide,0.03,0.25,0.5,0.050118723362727206,1,0.6362761039999896
84,1065,FarHighWide,0.5,0.25,0.03,0.03981071705534971,1,0.5702267030001167
84,1066,FarHighNarrow,0.2,0.15,0.1,0.031622776601683784,1,0.5832859430001918
84,1067,Constant,0.1,0.1,0.1,0.025118864315095787,0,99
84,1068,FarHighWide,0.5,0.25,0.03,0.031622776601683784,1,0.45995901900005265
84,1069,ThreeLinesControl,0.0,0.0,0.1,0.025118864315095787,0,0.5468266170000788
84,1070,Constant,0.1,0.1,0.1,0.03162277660168378,1,0.4171452640002826
84,1071,FarLowWide,0.03,0.25,0.5,0.039810717055349706,1,0.35017458899983467
84,1072,FarHighWide,0.5,0.25,0.03,0.02511886431509579,1,0.45195833099933225
84,1073,FarLowWide,0.03,0.25,0.5,0.03162277660168378,1,0.5064871439999479
84,1074,Constant,0.1,0.1,0.1,0.025118864315095787,0,0.6215157090000503
84,1075,FarHighWide,0.5,0.25,0.03,0.01995262314968879,0,0.7877067259996693
84,1076,FarLowWide,0.03,0.25,0.5,0.025118864315095787,0,99
84,1077,FarHighWide,0.5,0.25,0.03,0.025118864315095794,1,0.4205676530000346
84,1078,FarLowWide,0.03,0.25,0.5,0.03162277660168378,0,99
84,1079,ThreeLinesControl,0.0,0.0,0.1,0.03162277660168378,1,0.5604430100001991
84,1080,FarHighWide,0.5,0.25,0.03,0.01995262314968879,0,0.5948000589996809
84,1081,FarLowWide,0.03,0.25,0.5,0.039810717055349706,0,0.3197710249996817
84,1082,FarHighNarrow,0.2,0.15,0.1,0.02511886431509579,0,0.3007042030003504
84,1083,ThreeLinesControl,0.0,0.0,0.1,0.025118864315095787,0,0.8191023340004904
84,1084,ThreeLinesControl,0.0,0.0,0.1,0.03162277660168378,1,0.49724627700015844
84,1085,ThreeLinesControl,0.0,0.0,0.1,0.025118864315095787,0,0.3830700349999461
84,1086,ThreeLinesControl,0.0,0.0,0.1,0.03162277660168378,1,0.3816780369998014
84,1087,Constant,0.1,0.1,0.1,0.03162277660168378,1,0.41134477500054345
84,1088,Constant,0.1,0.1,0.1,0.025118864315095787,1,0.4751096280006095
84,1089,FarHighWide,0.5,0.25,0.03,0.025118864315095794,1,0.37701778300015576
84,1090,ThreeLinesControl,0.0,0.0,0.1,0.025118864315095787,1,0.42221585999959643
84,1091,FarLowWide,0.03,0.25,0.5,0.050118723362727206,1,0.3961675030004699
84,1092,ThreeLinesControl,0.0,0.0,0.1,0.019952623149688785,0,0.40511714500007656
84,1093,FarLowWide_null,0.03,0.25,0.5,0.0031622776601683772,1,0.3073281079996377
84,1094,Constant,0.1,0.1,0.1,0.019952623149688785,0,0.465797852999458
84,1095,FarLowWide_null,0.03,0.25,0.5,0.002511886431509578,1,0.3647220450002351
84,1096,FarHighWide,0.5,0.25,0.03,0.01995262314968879,0,0.35510207200059085
84,1097,FarHighNarrow,0.2,0.15,0.1,0.031622776601683784,0,0.16107838800053287
84,1098,ThreeLinesControl,0.0,0.0,0.1,0.025118864315095787,0,0.41441480399953434
84,1099,FarLowWide,0.03,0.25,0.5,0.039810717055349706,1,0.4683568740001647
84,1100,Constant,0.1,0.1,0.1,0.025118864315095787,0,0.36950333999993745
84,1101,FarHighWide,0.5,0.25,0.03,0.025118864315095794,1,0.48736159700001735
84,1102,Constant,0.1,0.1,0.1,0.03162277660168378,1,0.44590226099990105
84,1103,FarHighWide,0.5,0.25,0.03,0.01995262314968879,1,0.39619809400028316
84,1104,FarHighWide,0.5,0.25,0.03,0.015848931924611127,1,0.3628826789999948
84,1105,FarLowWide,0.03,0.25,0.5,0.03162277660168378,1,0.38532675100032066
84,1106,ThreeLinesControl,0.0,0.0,0.1,0.03162277660168378,0,0.3264995370000179
84,1107,ThreeLinesControl,0.0,0.0,0.1,0.039810717055349706,1,0.4683263730003091
84,1108,FarLowWide,0.03,0.25,0.5,0.025118864315095787,1,0.35379402700073115
84,1109,Constant,0.1,0.1,0.1,0.025118864315095787,1,0.4859541209998497
84,1110,FarLowWide,0.03,0.25,0.5,0.019952623149688785,1,0.4988541010006884
84,1111,FarHighNarrow,0.2,0.15,0.1,0.03981071705534971,1,0.4699985449997257
84,1112,ThreeLinesControl,0.0,0.0,0.1,0.03162277660168378,1,0.3162520209998547
84,1113,Constant,0.1,0.1,0.1,0.019952623149688785,1,0.28242482200039376
84,1114,FarHighNarrow,0.2,0.15,0.1,0.031622776601683784,1,0.4079752380002901
84,1115,FarHighNarrow,0.2,0.15,0.1,0.02511886431509579,1,0.17335260800064134
84,1116,FarHighNarrow,0.2,0.15,0.1,0.01995262314968879,1,0.10789357399971777
84,1117,FarLowWide,0.03,0.25,0.5,0.015848931924611124,1,0.2983198909996645
84,1118,FarHighWide,0.5,0.25,0.03,0.012589254117941666,1,0.2561400760005199
84,1119,FarLowWide,0.03,0.25,0.5,0.012589254117941663,0,0.5744445469999846
84,1120,FarLowWide,0.03,0.25,0.5,0.015848931924611124,1,0.4927754909995201
84,1121,FarHighWide,0.5,0.25,0.03,0.009999999999999995,0,0.6755737330004195
84,1122,FarHighWide,0.5,0.25,0.03,0.012589254117941666,0,0.7037895040002695
84,1123,FarLowWide,0.03,0.25,0.5,0.012589254117941663,0,0.5660611789999166
84,1124,Constant,0.1,0.1,0.1,0.015848931924611124,1,0.6279746380005236
84,1125,ThreeLinesControl,0.0,0.0,0.1,0.025118864315095787,1,0.5512687480004388
84,1126,FarHighWide,0.5,0.25,0.03,0.015848931924611127,0,0.8216025779993288
84,1127,FarHighWide,0.5,0.25,0.03,0.01995262314968879,1,0.5444727640006022
84,1128,Constant,0.1,0.1,0.1,0.012589254117941663,0,0.5507707169999776
84,1129,Constant,0.1,0.1,0.1,0.015848931924611124,1,0.7089161309995688
84,1130,Constant,0.1,0.1,0.1,0.012589254117941663,1,0.32994329200028005
84,1131,ThreeLinesControl,0.0,0.0,0.1,0.019952623149688785,0,99
84,1132,Constant,0.1,0.1,0.1,0.009999999999999992,0,0.39830545599943434
84,1133,FarLowWide_null,0.03,0.25,0.5,0.001995262314968878,1,0.3313113699996393
84,1134,Constant,0.1,0.1,0.1,0.012589254117941663,0,0.4252311780001037
84,1135,FarHighWide,0.5,0.25,0.03,0.015848931924611127,1,0.4799211589997867
84,1136,FarHighWide,0.5,0.25,0.03,0.012589254117941666,1,0.43099028899996483
84,1137,ThreeLinesControl,0.0,0.0,0.1,0.025118864315095787,1,0.3411736519992701
84,1138,FarLowWide,0.03,0.25,0.5,0.015848931924611124,0,0.37725983100062876
84,1139,Constant,0.1,0.1,0.1,0.015848931924611124,0,0.39917392799998197
84,1140,Constant,0.1,0.1,0.1,0.019952623149688785,1,0.44523272199967323
84,1141,Constant,0.1,0.1,0.1,0.015848931924611124,1,0.47262048900029185
84,1142,FarHighWide,0.5,0.25,0.03,0.009999999999999995,0,0.36631798000053095
84,1143,ThreeLinesControl,0.0,0.0,0.1,0.019952623149688785,1,0.41164248200038855
84,1144,Constant,0.1,0.1,0.1,0.012589254117941663,0,0.2950515010006711
84,1145,FarLowWide,0.03,0.25,0.5,0.019952623149688785,0,0.38959826300015266
84,1146,Constant,0.1,0.1,0.1,0.015848931924611124,0,0.37947924899981444
84,1147,FarLowWide,0.03,0.25,0.5,0.025118864315095787,0,0.24162494299980608
84,1148,FarLowWide,0.03,0.25,0.5,0.03162277660168378,0,0.3267330190001303
84,1149,FarHighWide,0.5,0.25,0.03,0.012589254117941666,0,0.39773263499955647
84,1150,Constant,0.1,0.1,0.1,0.019952623149688785,0,0.5769274329995824
84,1151,FarLowWide_null,0.03,0.25,0.5,0.0015848931924611121,1,0.4630265050000162
84,1152,FarHighWide,0.5,0.25,0.03,0.015848931924611127,0,0.3655545849996997
84,1153,ThreeLinesControl,0.0,0.0,0.1,0.015848931924611124,0,0.4687713719995372
84,1154,FarLowWide_null,0.03,0.25,0.5,0.001258925411794166,1,0.6988224260003335
84,1155,FarLowWide,0.03,0.25,0.5,0.039810717055349706,1,0.6303543730000456
84,1156,FarHighNarrow_null,0.2,0.15,0.1,0.002511886431509578,0,99
84,1157,FarHighWide,0.5,0.25,0.03,0.01995262314968879,0,0.7760143109999262
84,1158,FarLowWide,0.03,0.25,0.5,0.03162277660168378,1,0.662230766999528
84,1159,ThreeLinesControl,0.0,0.0,0.1,0.019952623149688785,0,0.5642274299998462
84,1160,Constant,0.1,0.1,0.1,0.025118864315095787,0,0.49559375399985583
84,1161,ThreeLinesControl,0.0,0.0,0.1,0.025118864315095787,0,0.317496212000151
84,1162,FarHighWide,0.5,0.25,0.03,0.025118864315095794,1,0.29187939100029325
84,1163,FarHighWide,0.5,0.25,0.03,0.01995262314968879,0,0.5929740769997807
84,1164,FarLowWide,0.03,0.25,0.5,0.025118864315095787,0,0.45487744500042027
84,1165,ThreeLinesControl,0.0,0.0,0.1,0.03162277660168378,0,0.6934377320003478
84,1166,FarLowWide,0.03,0.25,0.5,0.03162277660168378,0,0.5795088370005033
84,1167,Constant,0.1,0.1,0.1,0.03162277660168378,1,0.657612720000543
84,1168,FarHighWide,0.5,0.25,0.03,0.025118864315095794,1,0.5680675190005786
84,1169,Constant,0.1,0.1,0.1,0.025118864315095787,0,99
84,1170,FarHighNarrow_null,0.2,0.15,0.1,0.0031622776601683772,1,0.36527676500008965
84,1171,Constant,0.1,0.1,0.1,0.03162277660168378,1,0.575935161000416
84,1172,Constant,0.1,0.1,0.1,0.025118864315095787,1,0.46208449300047505
84,1173,Constant,0.1,0.1,0.1,0.019952623149688785,1,0.5700721700004578
84,1174,Constant,0.1,0.1,0.1,0.015848931924611124,0,0.7836107060002178
84,1175,FarHighWide,0.5,0.25,0.03,0.01995262314968879,0,0.8858142720000615
84,1176,Constant,0.1,0.1,0.1,0.019952623149688785,1,0.6008303190001243
84,1177,FarHighWide,0.5,0.25,0.03,0.025118864315095794,1,0.647003297000083
84,1178,FarHighWide,0.5,0.25,0.03,0.01995262314968879,0,0.5891257560006125
84,1179,FarHighWide,0.5,0.25,0.03,0.025118864315095794,1,0.5710225900002115
84,1180,FarHighWide,0.5,0.25,0.03,0.01995262314968879,1,0.393440947000272
84,1181,FarHighWide,0.5,0.25,0.03,0.015848931924611127,1,0.359738969999853
84,1182,FarHighWide,0.5,0.25,0.03,0.012589254117941666,1,0.3247270230003778
84,1183,FarHighWide,0.5,0.25,0.03,0.009999999999999995,1,0.3868653079998694
84,1184,FarHighWide,0.5,0.25,0.03,0.00794328234724281,1,0.4814259419999871
84,1185,FarHighWide,0.5,0.25,0.03,0.0063095734448019285,1,0.4722926169997663
84,1186,FarHighWide,0.5,0.25,0.03,0.005011872336272719,1,0.6387782609999704
84,1187,FarHighWide,0.5,0.25,0.03,0.00398107170553497,1,0.6665649649994521
84,1188,Constant,0.1,0.1,0.1,0.015848931924611124,1,0.4805382090007697
84,1189,Constant,0.1,0.1,0.1,0.012589254117941663,0,0.6377760249997664
84,1190,Constant,0.1,0.1,0.1,0.015848931924611124,1,0.7300472470005843
84,1191,FarHighWide,0.5,0.25,0.03,0.0031622776601683772,0,0.6152621929995803
84,1192,Constant,0.1,0.1,0.1,0.012589254117941663,0,0.5070557779999945
84,1193,FarHighWide,0.5,0.25,0.03,0.00398107170553497,0,0.4894440929992925
84,1194,FarHighWide,0.5,0.25,0.03,0.00501187233627272,0,0.4716331050003646
84,1195,Constant,0.1,0.1,0.1,0.015848931924611124,0,99
84,1196,Constant,0.1,0.1,0.1,0.019952623149688785,0,0.21876616800000193
84,1197,FarHighWide,0.5,0.25,0.03,0.006309573444801929,0,0.6166896260001522
84,1198,FarHighWide,0.5,0.25,0.03,0.007943282347242812,0,0.7752063420002742
84,1199,FarHighWide,0.5,0.25,0.03,0.009999999999999997,0,99
