Participant_Number,Trial_Number,Condition,FCfar,FCmed,FCclose,Target_Contrast,Correct_Response,Reaction_Time
76,0,FarHighWide,0.5,0.25,0.03,0.1,1,0.552383488000487
76,1,FarHighNarrow,0.2,0.15,0.1,0.1,1,0.6036291669988714
76,2,FarHighNarrow,0.2,0.15,0.1,0.07943282347242815,1,0.481593778999013
76,3,ThreeLinesControl,0.0,0.0,0.1,0.1,1,0.6128889660012646
76,4,FarLowWide,0.03,0.25,0.5,0.1,1,0.4029685479999898
76,5,FarLowNarrow,0.1,0.15,0.2,0.1,1,0.4731916420005291
76,6,ThreeLinesControl,0.0,0.0,0.1,0.07943282347242815,1,0.42035831000066537
76,7,FarHighWide,0.5,0.25,0.03,0.07943282347242815,1,0.5543153069993423
76,8,FarLowNarrow,0.1,0.15,0.2,0.07943282347242815,1,0.45767904900094436
76,9,FarHighWide,0.5,0.25,0.03,0.06309573444801932,1,0.4147278170003119
76,10,Constant,0.1,0.1,0.1,0.1,1,0.5008846900000208
76,11,ThreeLinesControl,0.0,0.0,0.1,0.06309573444801932,1,0.38601572799962014
76,12,FarHighWide,0.5,0.25,0.03,0.05011872336272722,1,0.3841319669991208
76,13,FarLowWide,0.03,0.25,0.5,0.07943282347242815,1,0.43011770699922636
76,14,FarLowNarrow,0.1,0.15,0.2,0.06309573444801932,1,0.4286038220016053
76,15,Constant,0.1,0.1,0.1,0.07943282347242815,1,0.37880103300085466
76,16,FarHighWide,0.5,0.25,0.03,0.03981071705534971,1,0.26590418700106966
76,17,ThreeLinesControl,0.0,0.0,0.1,0.05011872336272722,1,0.3485719689997495
76,18,FarHighWide_null,0.5,0.25,0.03,0.1,0,0.2911619759997848
76,19,FarLowWide_null,0.03,0.25,0.5,0.1,1,0.4810398819990951
76,20,FarHighWide,0.5,0.25,0.03,0.031622776601683784,1,0.5484151669988933
76,21,FarHighNarrow,0.2,0.15,0.1,0.06309573444801932,1,0.42614310999852023
76,22,Constant,0.1,0.1,0.1,0.06309573444801932,1,0.405932951000068
76,23,FarHighNarrow_null,0.2,0.15,0.1,0.1,1,0.531552736998492
76,24,FarLowNarrow,0.1,0.15,0.2,0.05011872336272722,1,0.5219976469998073
76,25,FarHighNarrow,0.2,0.15,0.1,0.05011872336272722,1,0.416048936000152
76,26,FarHighNarrow,0.2,0.15,0.1,0.03981071705534971,1,0.4222646319994965
76,27,FarLowWide_null,0.03,0.25,0.5,0.07943282347242815,1,0.42748508700060484
76,28,ThreeLinesControl,0.0,0.0,0.1,0.03981071705534971,1,0.4013159200003429
76,29,FarHighWide,0.5,0.25,0.03,0.02511886431509579,1,0.6476349840013427
76,30,FarLowNarrow_null,0.1,0.15,0.2,0.1,1,0.3980051790003927
76,31,ThreeLinesControl,0.0,0.0,0.1,0.031622776601683784,1,0.31731085399951553
76,32,FarHighNarrow,0.2,0.15,0.1,0.031622776601683784,1,0.43538310499934596
76,33,FarHighNarrow,0.2,0.15,0.1,0.02511886431509579,1,0.29527185400002054
76,34,FarHighNarrow,0.2,0.15,0.1,0.01995262314968879,1,0.3882833070001652
76,35,FarLowWide,0.03,0.25,0.5,0.06309573444801932,1,0.31431473799966625
76,36,Constant,0.1,0.1,0.1,0.05011872336272722,1,0.27744197900028666
76,37,FarLowWide,0.03,0.25,0.5,0.05011872336272722,1,0.42003804500018305
76,38,FarHighWide,0.5,0.25,0.03,0.01995262314968879,1,0.44801699399977224
76,39,FarHighNarrow,0.2,0.15,0.1,0.015848931924611127,0,0.43015050499889185
76,40,FarLowNarrow,0.1,0.15,0.2,0.03981071705534971,1,0.3311839880007028
76,41,Constant,0.1,0.1,0.1,0.03981071705534971,1,0.48162178699931246
76,42,FarLowNarrow,0.1,0.15,0.2,0.031622776601683784,1,0.39948350499980734
76,43,FarHighWide,0.5,0.25,0.03,0.015848931924611127,1,0.3897692549999192
76,44,ThreeLinesControl,0.0,0.0,0.1,0.02511886431509579,0,99
76,45,FarHighNarrow,0.2,0.15,0.1,0.01995262314968879,1,0.45807307999893965
76,46,FarLowNarrow,0.1,0.15,0.2,0.02511886431509579,1,0.5832486850013083
76,47,Constant,0.1,0.1,0.1,0.031622776601683784,1,0.3668033269987063
76,48,Constant,0.1,0.1,0.1,0.02511886431509579,1,0.3806457490009052
76,49,Constant,0.1,0.1,0.1,0.01995262314968879,1,0.32775069499984966
76,50,FarHighWide,0.5,0.25,0.03,0.012589254117941666,1,0.3414595799986273
76,51,Constant,0.1,0.1,0.1,0.015848931924611127,1,0.275790888001211
76,52,Constant,0.1,0.1,0.1,0.012589254117941666,1,0.29491465800128935
76,53,FarLowWide,0.03,0.25,0.5,0.03981071705534971,1,0.42948710800010304
76,54,FarHighNarrow_null,0.2,0.15,0.1,0.07943282347242815,0,0.25935174799997185
76,55,FarLowNarrow,0.1,0.15,0.2,0.01995262314968879,0,0.3735250419995282
76,56,ThreeLinesControl_null,0.0,0.0,0.1,0.1,1,0.5395333239994216
76,57,FarLowWide,0.03,0.25,0.5,0.031622776601683784,1,0.4257411310009047
76,58,ThreeLinesControl,0.0,0.0,0.1,0.031622776601683784,1,0.32797553400087054
76,59,ThreeLinesControl,0.0,0.0,0.1,0.02511886431509579,1,0.446029324999472
76,60,ThreeLinesControl,0.0,0.0,0.1,0.01995262314968879,0,0.44428224900002533
76,61,FarHighWide,0.5,0.25,0.03,0.009999999999999995,0,0.6334599389992945
76,62,ThreeLinesControl_null,0.0,0.0,0.1,0.07943282347242815,0,0.48732167999878584
76,63,FarLowNarrow,0.1,0.15,0.2,0.025118864315095794,1,0.5178122630004509
76,64,Constant,0.1,0.1,0.1,0.009999999999999995,1,0.5800594610009284
76,65,FarHighNarrow,0.2,0.15,0.1,0.015848931924611127,1,0.4102398510003695
76,66,FarLowNarrow,0.1,0.15,0.2,0.01995262314968879,1,0.4780716770001163
76,67,Constant,0.1,0.1,0.1,0.00794328234724281,0,0.4112153580008453
76,68,Constant,0.1,0.1,0.1,0.009999999999999995,0,0.510529705999943
76,69,FarHighWide,0.5,0.25,0.03,0.012589254117941666,0,0.6766520379987924
76,70,FarLowWide,0.03,0.25,0.5,0.02511886431509579,1,0.6907131550015038
76,71,FarHighWide_null,0.5,0.25,0.03,0.1,1,0.6550011260005704
76,72,FarHighNarrow,0.2,0.15,0.1,0.012589254117941666,1,0.46098620600059803
76,73,FarHighNarrow,0.2,0.15,0.1,0.009999999999999995,1,0.37920910000138974
76,74,FarHighNarrow,0.2,0.15,0.1,0.00794328234724281,0,0.5372995529996842
76,75,FarLowWide,0.03,0.25,0.5,0.01995262314968879,0,0.46349262700096006
76,76,FarLowWide,0.03,0.25,0.5,0.025118864315095794,0,0.3966626189994713
76,77,Constant,0.1,0.1,0.1,0.012589254117941666,0,0.4990876140000182
76,78,FarHighWide,0.5,0.25,0.03,0.015848931924611127,1,0.5848191500008397
76,79,ThreeLinesControl,0.0,0.0,0.1,0.025118864315095794,1,0.3916768039998715
76,80,Constant,0.1,0.1,0.1,0.015848931924611127,1,0.5251731680000375
76,81,FarLowWide,0.03,0.25,0.5,0.031622776601683784,1,0.3490245480006706
76,82,FarLowNarrow,0.1,0.15,0.2,0.015848931924611127,1,0.36749003200020525
76,83,FarHighWide,0.5,0.25,0.03,0.012589254117941666,1,0.5656635229988751
76,84,FarLowNarrow,0.1,0.15,0.2,0.012589254117941666,0,0.5848933390007005
76,85,FarHighWide_null,0.5,0.25,0.03,0.07943282347242815,1,0.5830502070002694
76,86,FarHighWide,0.5,0.25,0.03,0.009999999999999995,0,0.5809265250009048
76,87,ThreeLinesControl,0.0,0.0,0.1,0.01995262314968879,1,0.4653388480001013
76,88,ThreeLinesControl,0.0,0.0,0.1,0.015848931924611127,0,0.8072520120003901
76,89,FarLowNarrow,0.1,0.15,0.2,0.015848931924611127,1,0.4535869660012395
76,90,FarHighWide,0.5,0.25,0.03,0.012589254117941666,1,0.6026577699994959
76,91,FarHighWide,0.5,0.25,0.03,0.009999999999999995,1,0.5445374840001023
76,92,FarLowNarrow,0.1,0.15,0.2,0.012589254117941666,1,0.5590460800012806
76,93,FarLowNarrow,0.1,0.15,0.2,0.009999999999999995,0,0.4946614549990045
76,94,ThreeLinesControl,0.0,0.0,0.1,0.01995262314968879,0,0.49939406600060465
76,95,ThreeLinesControl,0.0,0.0,0.1,0.025118864315095794,1,0.4965733499993803
76,96,Constant_null,0.1,0.1,0.1,0.1,1,0.5585927560005075
76,97,FarLowNarrow,0.1,0.15,0.2,0.012589254117941666,1,0.5091234410010657
76,98,FarLowWide,0.03,0.25,0.5,0.02511886431509579,0,0.43979120700169005
76,99,ThreeLinesControl,0.0,0.0,0.1,0.01995262314968879,1,0.6781414209999639
76,100,FarLowNarrow,0.1,0.15,0.2,0.009999999999999995,0,0.7157853839999007
76,101,FarHighWide,0.5,0.25,0.03,0.00794328234724281,1,0.6394967260002886
76,102,FarHighNarrow,0.2,0.15,0.1,0.009999999999999995,1,0.45342291300039506
76,103,FarLowNarrow,0.1,0.15,0.2,0.012589254117941666,1,0.38551668800027983
76,104,FarHighNarrow,0.2,0.15,0.1,0.00794328234724281,0,0.527706857999874
76,105,FarHighNarrow,0.2,0.15,0.1,0.009999999999999995,0,0.4778359179999825
76,106,FarHighWide,0.5,0.25,0.03,0.0063095734448019285,0,0.4922619899989513
76,107,ThreeLinesControl,0.0,0.0,0.1,0.015848931924611127,0,0.3862101310005528
76,108,FarLowNarrow,0.1,0.15,0.2,0.009999999999999995,1,0.4793802889998915
76,109,FarHighNarrow,0.2,0.15,0.1,0.012589254117941666,1,0.3669775580001442
76,110,ThreeLinesControl,0.0,0.0,0.1,0.01995262314968879,1,0.4603546660000575
76,111,FarLowNarrow,0.1,0.15,0.2,0.00794328234724281,1,0.6275475399997958
76,112,ThreeLinesControl,0.0,0.0,0.1,0.015848931924611127,0,0.6960493900005531
76,113,FarHighNarrow,0.2,0.15,0.1,0.009999999999999995,1,0.5261893710012373
76,114,FarLowNarrow,0.1,0.15,0.2,0.0063095734448019285,0,0.7452572009988216
76,115,Constant,0.1,0.1,0.1,0.012589254117941666,0,0.6074309189989435
76,116,FarHighNarrow,0.2,0.15,0.1,0.00794328234724281,0,0.6455539180005871
76,117,FarLowNarrow,0.1,0.15,0.2,0.00794328234724281,0,0.6407210400011536
76,118,FarHighWide_null,0.5,0.25,0.03,0.06309573444801932,1,0.5109625280001637
76,119,FarHighNarrow,0.2,0.15,0.1,0.009999999999999995,0,0.5722229990005872
76,120,ThreeLinesControl,0.0,0.0,0.1,0.01995262314968879,0,0.49007625200101756
76,121,Constant,0.1,0.1,0.1,0.015848931924611127,0,0.5374066999993374
76,122,FarHighWide,0.5,0.25,0.03,0.00794328234724281,0,0.34361656900000526
76,123,Constant,0.1,0.1,0.1,0.01995262314968879,0,0.4868696800003818
76,124,FarHighWide,0.5,0.25,0.03,0.009999999999999995,1,0.44276583900136757
76,125,FarHighWide_null,0.5,0.25,0.03,0.05011872336272722,1,0.6168599389984593
76,126,FarLowWide,0.03,0.25,0.5,0.031622776601683784,1,0.6842533190010727
76,127,FarHighNarrow_null,0.2,0.15,0.1,0.1,0,0.41830875100095
76,128,FarHighNarrow,0.2,0.15,0.1,0.012589254117941666,1,1.1354439980004827
76,129,ThreeLinesControl,0.0,0.0,0.1,0.025118864315095794,1,0.4914875190006569
76,130,FarLowWide,0.03,0.25,0.5,0.02511886431509579,1,0.6487504590004392
76,131,FarHighWide_null,0.5,0.25,0.03,0.03981071705534971,1,0.6067798780004523
76,132,FarLowNarrow,0.1,0.15,0.2,0.009999999999999995,0,0.7320426540009066
76,133,FarLowNarrow,0.1,0.15,0.2,0.012589254117941666,0,0.40187964999859105
76,134,FarLowNarrow,0.1,0.15,0.2,0.015848931924611127,0,0.376064492000296
76,135,FarHighWide,0.5,0.25,0.03,0.00794328234724281,1,0.573214565998569
76,136,FarLowNarrow,0.1,0.15,0.2,0.01995262314968879,0,0.5156198980002955
76,137,FarLowWide,0.03,0.25,0.5,0.01995262314968879,0,0.4187871569993149
76,138,ThreeLinesControl,0.0,0.0,0.1,0.01995262314968879,1,0.5292789239992999
76,139,FarHighNarrow,0.2,0.15,0.1,0.009999999999999995,1,0.6561438600001566
76,140,ThreeLinesControl_null,0.0,0.0,0.1,0.1,1,0.4042985240012058
76,141,FarHighWide,0.5,0.25,0.03,0.0063095734448019285,0,0.761327630998494
76,142,FarHighWide,0.5,0.25,0.03,0.00794328234724281,0,0.46848958999908064
76,143,FarLowWide,0.03,0.25,0.5,0.025118864315095794,0,0.40243776100032846
76,144,FarHighNarrow_null,0.2,0.15,0.1,0.1,0,0.6885079269995913
76,145,FarHighNarrow_null,0.2,0.15,0.1,0.1,1,0.5081556360000832
76,146,ThreeLinesControl,0.0,0.0,0.1,0.015848931924611127,0,0.39402216599955864
76,147,ThreeLinesControl,0.0,0.0,0.1,0.01995262314968879,1,0.5519777600002271
76,148,FarLowNarrow,0.1,0.15,0.2,0.025118864315095794,0,0.5023810340007913
76,149,FarHighNarrow,0.2,0.15,0.1,0.00794328234724281,0,0.4195179439993808
76,150,FarHighNarrow,0.2,0.15,0.1,0.009999999999999995,1,0.761623761998635
76,151,ThreeLinesControl,0.0,0.0,0.1,0.015848931924611127,1,0.6317940280005132
76,152,Constant,0.1,0.1,0.1,0.025118864315095794,1,0.4620177220003825
76,153,Constant,0.1,0.1,0.1,0.01995262314968879,0,0.4842792709987407
76,154,FarHighWide,0.5,0.25,0.03,0.009999999999999995,0,0.49955302300077165
76,155,FarHighWide,0.5,0.25,0.03,0.012589254117941666,0,0.8095745659993554
76,156,FarLowNarrow,0.1,0.15,0.2,0.031622776601683784,1,0.3496256899998116
76,157,FarLowNarrow,0.1,0.15,0.2,0.02511886431509579,0,0.6118140359994868
76,158,FarLowNarrow,0.1,0.15,0.2,0.031622776601683784,1,0.3938609100005124
76,159,ThreeLinesControl,0.0,0.0,0.1,0.012589254117941666,1,0.5569853080014582
76,160,FarHighWide,0.5,0.25,0.03,0.015848931924611127,1,0.3861003379988688
76,161,Constant,0.1,0.1,0.1,0.025118864315095794,1,0.4703851999984181
76,162,Constant,0.1,0.1,0.1,0.01995262314968879,1,0.5644822279991786
76,163,ThreeLinesControl,0.0,0.0,0.1,0.009999999999999995,0,0.7775182660006976
76,164,FarHighNarrow,0.2,0.15,0.1,0.00794328234724281,0,0.5275531579991366
76,165,FarLowWide,0.03,0.25,0.5,0.031622776601683784,0,0.3899039560001256
76,166,FarHighWide,0.5,0.25,0.03,0.012589254117941666,1,0.7401145149997319
76,167,FarLowNarrow,0.1,0.15,0.2,0.02511886431509579,1,0.6100348200016015
76,168,FarHighWide,0.5,0.25,0.03,0.009999999999999995,1,0.5992883950002579
76,169,FarHighWide,0.5,0.25,0.03,0.00794328234724281,0,0.4297802719993342
76,170,FarLowWide_null,0.03,0.25,0.5,0.06309573444801932,1,0.34002474800036
76,171,FarHighWide,0.5,0.25,0.03,0.009999999999999995,1,0.5708315640004002
76,172,FarHighNarrow,0.2,0.15,0.1,0.009999999999999995,0,0.773935105999044
76,173,FarHighWide,0.5,0.25,0.03,0.00794328234724281,0,0.4680655279989878
76,174,ThreeLinesControl,0.0,0.0,0.1,0.012589254117941666,0,0.4741489259995433
76,175,FarHighWide,0.5,0.25,0.03,0.009999999999999995,0,0.413587004000874
76,176,Constant_null,0.1,0.1,0.1,0.07943282347242815,1,0.31437599300079455
76,177,FarHighNarrow,0.2,0.15,0.1,0.012589254117941666,0,0.3444599359991116
76,178,FarLowWide,0.03,0.25,0.5,0.03981071705534971,1,0.3888873550004064
76,179,ThreeLinesControl,0.0,0.0,0.1,0.015848931924611127,1,0.5549762549999286
76,180,FarLowNarrow_null,0.1,0.15,0.2,0.07943282347242815,1,0.6563111580016994
76,181,Constant,0.1,0.1,0.1,0.015848931924611127,0,0.43821877600021253
76,182,FarHighNarrow,0.2,0.15,0.1,0.015848931924611127,0,0.5725160680012777
76,183,FarLowWide,0.03,0.25,0.5,0.031622776601683784,1,0.9145737160015415
76,184,ThreeLinesControl,0.0,0.0,0.1,0.012589254117941666,1,0.7448299780007801
76,185,FarHighNarrow,0.2,0.15,0.1,0.01995262314968879,1,0.550948091000464
76,186,FarLowNarrow,0.1,0.15,0.2,0.01995262314968879,1,0.3572948439996253
76,187,FarHighWide_null,0.5,0.25,0.03,0.031622776601683784,1,0.46751415399921825
76,188,FarLowNarrow,0.1,0.15,0.2,0.015848931924611127,0,0.4152951699998084
76,189,FarHighWide,0.5,0.25,0.03,0.012589254117941666,0,0.43627810099860653
76,190,FarHighWide,0.5,0.25,0.03,0.015848931924611127,0,0.4515474649997486
76,191,FarHighWide,0.5,0.25,0.03,0.01995262314968879,1,0.7258559450001485
76,192,FarHighNarrow,0.2,0.15,0.1,0.015848931924611127,0,0.42790881200016884
76,193,FarHighWide,0.5,0.25,0.03,0.015848931924611127,1,0.5298481089994311
76,194,FarHighNarrow,0.2,0.15,0.1,0.01995262314968879,1,0.5261782670004322
76,195,ThreeLinesControl,0.0,0.0,0.1,0.009999999999999995,0,0.5395089060002647
76,196,FarLowWide_null,0.03,0.25,0.5,0.05011872336272722,1,0.33726238300005207
76,197,FarLowWide,0.03,0.25,0.5,0.02511886431509579,0,0.3596686620003311
76,198,FarLowWide,0.03,0.25,0.5,0.031622776601683784,0,0.34157098900141136
76,199,FarHighNarrow,0.2,0.15,0.1,0.015848931924611127,0,0.3479360530000122
76,200,FarLowWide,0.03,0.25,0.5,0.03981071705534971,1,0.5462856920003105
76,201,FarHighNarrow_null,0.2,0.15,0.1,0.07943282347242815,1,0.6003483340009552
76,202,FarHighWide,0.5,0.25,0.03,0.012589254117941666,1,0.6225273330001073
76,203,FarLowNarrow,0.1,0.15,0.2,0.01995262314968879,0,0.5167368530001113
76,204,ThreeLinesControl,0.0,0.0,0.1,0.012589254117941666,0,0.5642949459997908
76,205,FarHighNarrow,0.2,0.15,0.1,0.01995262314968879,1,0.5669460839999374
76,206,FarLowNarrow,0.1,0.15,0.2,0.025118864315095794,1,0.6689922429995931
76,207,Constant,0.1,0.1,0.1,0.01995262314968879,1,0.7283941469995625
76,208,ThreeLinesControl_null,0.0,0.0,0.1,0.07943282347242815,1,0.5582942189994355
76,209,FarHighNarrow,0.2,0.15,0.1,0.015848931924611127,0,0.43652012799975637
76,210,Constant,0.1,0.1,0.1,0.015848931924611127,0,0.3514908729994204
76,211,FarHighNarrow,0.2,0.15,0.1,0.01995262314968879,1,0.3738195829992037
76,212,ThreeLinesControl,0.0,0.0,0.1,0.015848931924611127,1,0.40376703400033875
76,213,Constant,0.1,0.1,0.1,0.01995262314968879,1,0.4100313239996467
76,214,FarLowNarrow,0.1,0.15,0.2,0.01995262314968879,0,0.4312107969999488
76,215,ThreeLinesControl,0.0,0.0,0.1,0.012589254117941666,0,0.34902646800037473
76,216,FarLowNarrow_null,0.1,0.15,0.2,0.06309573444801932,1,0.44394827900032396
76,217,FarLowNarrow,0.1,0.15,0.2,0.025118864315095794,1,0.47343471399835835
76,218,FarLowWide,0.03,0.25,0.5,0.031622776601683784,0,0.47174815099970147
76,219,Constant,0.1,0.1,0.1,0.015848931924611127,1,0.7981997879996925
76,220,FarLowWide,0.03,0.25,0.5,0.03981071705534971,1,0.42028748000120686
76,221,FarHighWide,0.5,0.25,0.03,0.009999999999999995,1,0.5682046660003834
76,222,FarHighWide,0.5,0.25,0.03,0.00794328234724281,0,0.5023541739992652
76,223,ThreeLinesControl,0.0,0.0,0.1,0.015848931924611127,0,0.6033365550010785
76,224,Constant,0.1,0.1,0.1,0.012589254117941666,0,0.4383934839988797
76,225,Constant,0.1,0.1,0.1,0.015848931924611127,0,0.49273222599913424
76,226,ThreeLinesControl,0.0,0.0,0.1,0.01995262314968879,0,0.5509426200005691
76,227,FarLowWide,0.03,0.25,0.5,0.031622776601683784,1,0.4132705719985097
76,228,FarHighWide,0.5,0.25,0.03,0.009999999999999995,1,0.4750671109995892
76,229,Constant,0.1,0.1,0.1,0.01995262314968879,0,0.4814237550017424
76,230,FarHighWide,0.5,0.25,0.03,0.00794328234724281,1,0.7114904469999601
76,231,ThreeLinesControl,0.0,0.0,0.1,0.025118864315095794,0,0.4606285130012111
76,232,FarLowWide,0.03,0.25,0.5,0.02511886431509579,1,0.4748424779991183
76,233,Constant,0.1,0.1,0.1,0.025118864315095794,1,0.5443994239994936
76,234,FarLowNarrow,0.1,0.15,0.2,0.01995262314968879,1,0.4956836069995916
76,235,FarLowWide,0.03,0.25,0.5,0.01995262314968879,0,0.36541031600063434
76,236,FarLowNarrow,0.1,0.15,0.2,0.015848931924611127,0,0.41144998100025987
76,237,FarLowNarrow,0.1,0.15,0.2,0.01995262314968879,0,0.30240727299860737
76,238,FarLowWide,0.03,0.25,0.5,0.025118864315095794,1,0.38072077299875673
76,239,FarHighNarrow,0.2,0.15,0.1,0.015848931924611127,0,0.5627664940002433
76,240,FarLowWide,0.03,0.25,0.5,0.01995262314968879,0,0.4631440079992899
76,241,FarLowNarrow,0.1,0.15,0.2,0.025118864315095794,0,0.4215673290000268
76,242,FarHighWide,0.5,0.25,0.03,0.0063095734448019285,0,0.5958513429995946
76,243,FarHighNarrow,0.2,0.15,0.1,0.01995262314968879,0,0.4423072330009745
76,244,FarLowNarrow,0.1,0.15,0.2,0.031622776601683784,1,0.4329912810007954
76,245,FarHighNarrow,0.2,0.15,0.1,0.025118864315095794,0,0.4550753479998093
76,246,Constant,0.1,0.1,0.1,0.01995262314968879,1,0.3012204520000523
76,247,FarLowWide,0.03,0.25,0.5,0.025118864315095794,0,0.3603326100001141
76,248,FarLowWide,0.03,0.25,0.5,0.031622776601683784,1,0.9105466479995812
76,249,FarLowWide,0.03,0.25,0.5,0.02511886431509579,0,0.5406158069999947
76,250,FarHighNarrow,0.2,0.15,0.1,0.031622776601683784,1,0.3759146430002147
76,251,FarLowNarrow,0.1,0.15,0.2,0.02511886431509579,1,1.078012812000452
76,252,ThreeLinesControl,0.0,0.0,0.1,0.031622776601683784,1,0.3231561350003176
76,253,ThreeLinesControl,0.0,0.0,0.1,0.02511886431509579,1,0.4162248909997288
76,254,FarHighWide,0.5,0.25,0.03,0.00794328234724281,1,0.8066436370008887
76,255,FarLowWide,0.03,0.25,0.5,0.031622776601683784,0,0.516556815999138
76,256,ThreeLinesControl,0.0,0.0,0.1,0.01995262314968879,0,0.5069065139996383
76,257,Constant,0.1,0.1,0.1,0.015848931924611127,0,0.5519288289997348
76,258,Constant,0.1,0.1,0.1,0.01995262314968879,0,0.5673385310001322
76,259,Constant,0.1,0.1,0.1,0.025118864315095794,0,0.4612151970013656
76,260,Constant,0.1,0.1,0.1,0.031622776601683784,1,0.5633533199998055
76,261,FarLowWide_null,0.03,0.25,0.5,0.03981071705534971,1,0.38449726800172357
76,262,Constant,0.1,0.1,0.1,0.02511886431509579,1,0.44654136799908883
76,263,FarHighNarrow,0.2,0.15,0.1,0.02511886431509579,1,0.48272959899986745
76,264,FarLowWide,0.03,0.25,0.5,0.03981071705534971,0,0.3839947310007119
76,265,FarLowNarrow,0.1,0.15,0.2,0.01995262314968879,1,0.501816060001147
76,266,ThreeLinesControl,0.0,0.0,0.1,0.025118864315095794,1,0.32927405499867746
76,267,FarLowNarrow,0.1,0.15,0.2,0.015848931924611127,1,0.2872331079997821
76,268,FarLowWide,0.03,0.25,0.5,0.05011872336272721,1,0.46158210999965377
76,269,Constant,0.1,0.1,0.1,0.01995262314968879,1,0.762565689999974
76,270,FarLowWide,0.03,0.25,0.5,0.03981071705534971,1,0.3368785120001121
76,271,Constant,0.1,0.1,0.1,0.015848931924611127,0,0.6458279510006832
76,272,Constant,0.1,0.1,0.1,0.01995262314968879,1,0.4678129470012209
76,273,ThreeLinesControl,0.0,0.0,0.1,0.01995262314968879,1,0.4903672589989583
76,274,FarHighWide,0.5,0.25,0.03,0.0063095734448019285,0,0.5457499549993372
76,275,Constant,0.1,0.1,0.1,0.015848931924611127,1,0.48754457699942577
76,276,FarLowWide,0.03,0.25,0.5,0.031622776601683784,1,0.41472345300098823
76,277,FarLowWide,0.03,0.25,0.5,0.02511886431509579,1,0.5631307069998002
76,278,Constant_null,0.1,0.1,0.1,0.06309573444801932,1,0.4408859770010167
76,279,FarHighWide_null,0.5,0.25,0.03,0.02511886431509579,1,0.4952144129983935
76,280,FarHighNarrow,0.2,0.15,0.1,0.01995262314968879,1,0.46637526000085927
76,281,FarLowWide,0.03,0.25,0.5,0.01995262314968879,1,0.5286165589986922
76,282,FarHighWide,0.5,0.25,0.03,0.00794328234724281,0,0.48337145100049383
76,283,FarLowWide,0.03,0.25,0.5,0.015848931924611127,0,0.36758468500011077
76,284,FarLowNarrow,0.1,0.15,0.2,0.012589254117941666,0,0.47798797600080434
76,285,FarLowNarrow_null,0.1,0.15,0.2,0.05011872336272722,1,0.43490731199926813
76,286,FarLowNarrow,0.1,0.15,0.2,0.015848931924611127,1,0.40107370000077935
76,287,FarLowWide,0.03,0.25,0.5,0.01995262314968879,0,0.43150189600055455
76,288,FarLowWide,0.03,0.25,0.5,0.025118864315095794,1,0.48550479100049415
76,289,FarLowNarrow,0.1,0.15,0.2,0.012589254117941666,0,0.5149458450014208
76,290,FarLowNarrow,0.1,0.15,0.2,0.015848931924611127,1,0.538072719999036
76,291,FarLowNarrow,0.1,0.15,0.2,0.012589254117941666,0,0.7202437660016585
76,292,ThreeLinesControl,0.0,0.0,0.1,0.015848931924611127,1,0.42347665700071957
76,293,Constant,0.1,0.1,0.1,0.012589254117941666,1,0.6181072599993058
76,294,ThreeLinesControl,0.0,0.0,0.1,0.012589254117941666,0,0.6323030370003835
76,295,FarLowNarrow,0.1,0.15,0.2,0.015848931924611127,0,0.4384736049996718
76,296,FarHighNarrow,0.2,0.15,0.1,0.015848931924611127,1,0.39330729600078485
76,297,FarLowWide,0.03,0.25,0.5,0.01995262314968879,0,0.39985988800071937
76,298,Constant,0.1,0.1,0.1,0.009999999999999995,0,0.7021459099996719
76,299,FarHighNarrow,0.2,0.15,0.1,0.012589254117941666,0,0.6249703140001657
76,300,ThreeLinesControl,0.0,0.0,0.1,0.015848931924611127,0,0.3993324250004662
76,301,ThreeLinesControl,0.0,0.0,0.1,0.01995262314968879,1,0.3565159420013515
76,302,FarLowNarrow_null,0.1,0.15,0.2,0.03981071705534971,0,0.4106455069995718
76,303,FarLowWide,0.03,0.25,0.5,0.025118864315095794,0,0.4487678519999463
76,304,FarLowWide,0.03,0.25,0.5,0.031622776601683784,1,0.5176996749996761
76,305,Constant,0.1,0.1,0.1,0.012589254117941666,0,0.5481444590004685
76,306,FarLowNarrow_null,0.1,0.15,0.2,0.05011872336272721,1,0.3862212610001734
76,307,FarLowWide,0.03,0.25,0.5,0.02511886431509579,1,0.5605342439994274
76,308,FarHighNarrow,0.2,0.15,0.1,0.015848931924611127,0,0.6075785640005051
76,309,FarHighWide_null,0.5,0.25,0.03,0.01995262314968879,0,0.5029187110012572
76,310,FarHighNarrow,0.2,0.15,0.1,0.01995262314968879,1,0.5469165659997088
76,311,FarHighWide,0.5,0.25,0.03,0.009999999999999995,0,0.7448692250000022
76,312,FarHighNarrow,0.2,0.15,0.1,0.015848931924611127,1,0.9313299980003649
76,313,FarLowWide,0.03,0.25,0.5,0.01995262314968879,1,0.5382574459999887
76,314,FarHighWide,0.5,0.25,0.03,0.012589254117941666,1,0.45529412999894703
76,315,FarLowNarrow,0.1,0.15,0.2,0.01995262314968879,0,0.537977657000738
76,316,ThreeLinesControl,0.0,0.0,0.1,0.015848931924611127,1,0.6486316139998962
76,317,FarHighNarrow,0.2,0.15,0.1,0.012589254117941666,1,0.5427295210010925
76,318,FarLowNarrow,0.1,0.15,0.2,0.025118864315095794,1,0.45187615000031656
76,319,ThreeLinesControl,0.0,0.0,0.1,0.012589254117941666,1,0.602091296999788
76,320,FarHighWide,0.5,0.25,0.03,0.009999999999999995,0,0.5922984480002924
76,321,ThreeLinesControl,0.0,0.0,0.1,0.009999999999999995,1,0.6785420510004769
76,322,FarLowNarrow,0.1,0.15,0.2,0.01995262314968879,0,0.5325790739989316
76,323,FarHighNarrow,0.2,0.15,0.1,0.009999999999999995,1,0.666768007000428
76,324,FarLowNarrow,0.1,0.15,0.2,0.025118864315095794,1,0.3781692410011601
76,325,Constant,0.1,0.1,0.1,0.015848931924611127,1,0.8403347109997412
76,326,FarHighWide,0.5,0.25,0.03,0.012589254117941666,0,0.46825973500017426
76,327,ThreeLinesControl,0.0,0.0,0.1,0.00794328234724281,0,0.40211778199955006
76,328,ThreeLinesControl,0.0,0.0,0.1,0.009999999999999995,0,1.0535413859997789
76,329,FarLowWide,0.03,0.25,0.5,0.015848931924611127,0,0.4513780750003207
76,330,FarHighNarrow,0.2,0.15,0.1,0.00794328234724281,0,0.4170845270000427
76,331,ThreeLinesControl,0.0,0.0,0.1,0.012589254117941666,0,0.4840112809997663
76,332,FarHighWide,0.5,0.25,0.03,0.015848931924611127,1,0.4421575969990954
76,333,FarHighWide,0.5,0.25,0.03,0.012589254117941666,0,0.4481182859999535
76,334,FarHighNarrow,0.2,0.15,0.1,0.009999999999999995,0,99
76,335,ThreeLinesControl,0.0,0.0,0.1,0.015848931924611127,0,0.5396439769992867
76,336,FarLowWide,0.03,0.25,0.5,0.01995262314968879,1,0.5935572319995117
76,337,Constant,0.1,0.1,0.1,0.012589254117941666,0,0.5117464909999399
76,338,ThreeLinesControl,0.0,0.0,0.1,0.01995262314968879,1,0.4940240259984421
76,339,FarHighNarrow,0.2,0.15,0.1,0.012589254117941666,0,0.5404290420010511
76,340,FarLowNarrow,0.1,0.15,0.2,0.01995262314968879,0,0.5934838020002644
76,341,FarLowNarrow,0.1,0.15,0.2,0.025118864315095794,0,0.4485182739990705
76,342,FarLowWide,0.03,0.25,0.5,0.015848931924611127,0,0.3082810910000262
76,343,Constant,0.1,0.1,0.1,0.015848931924611127,0,0.29764745800093806
76,344,ThreeLinesControl,0.0,0.0,0.1,0.015848931924611127,0,0.3198207990008086
76,345,Constant,0.1,0.1,0.1,0.01995262314968879,0,0.4351628410004196
76,346,FarLowNarrow,0.1,0.15,0.2,0.031622776601683784,0,0.4572210510013974
76,347,FarHighNarrow,0.2,0.15,0.1,0.015848931924611127,1,0.284461466000721
76,348,FarLowWide,0.03,0.25,0.5,0.01995262314968879,1,0.6900754559992492
76,349,FarHighWide,0.5,0.25,0.03,0.015848931924611127,1,0.7606663819988171
76,350,FarHighWide,0.5,0.25,0.03,0.012589254117941666,1,0.502873482000723
76,351,FarHighWide,0.5,0.25,0.03,0.009999999999999995,1,0.34796111899959214
76,352,Constant,0.1,0.1,0.1,0.025118864315095794,0,0.441785336999601
76,353,FarLowWide,0.03,0.25,0.5,0.015848931924611127,0,0.5601496730014333
76,354,FarLowWide,0.03,0.25,0.5,0.01995262314968879,0,0.5103693660003046
76,355,FarHighNarrow,0.2,0.15,0.1,0.012589254117941666,0,0.4366797940001561
76,356,FarLowNarrow,0.1,0.15,0.2,0.03981071705534971,1,0.45874210500005574
76,357,FarLowWide,0.03,0.25,0.5,0.025118864315095794,1,0.40188340500026243
76,358,FarLowNarrow,0.1,0.15,0.2,0.031622776601683784,1,0.3248778189990844
76,359,FarLowNarrow,0.1,0.15,0.2,0.02511886431509579,0,0.538938699000937
76,360,Constant,0.1,0.1,0.1,0.031622776601683784,1,0.6801810910001223
76,361,Constant,0.1,0.1,0.1,0.02511886431509579,1,0.4292742329998873
76,362,FarLowWide,0.03,0.25,0.5,0.01995262314968879,0,0.3798341250003432
76,363,FarLowWide,0.03,0.25,0.5,0.025118864315095794,0,0.35352716200031864
76,364,FarLowNarrow,0.1,0.15,0.2,0.031622776601683784,0,0.5896181919997616
76,365,FarLowWide,0.03,0.25,0.5,0.031622776601683784,0,0.362665320000815
76,366,Constant,0.1,0.1,0.1,0.01995262314968879,1,0.3210004619995743
76,367,FarLowWide,0.03,0.25,0.5,0.03981071705534971,1,0.32384545800050546
76,368,ThreeLinesControl,0.0,0.0,0.1,0.01995262314968879,0,0.45034574800047267
76,369,ThreeLinesControl,0.0,0.0,0.1,0.025118864315095794,1,0.7505892160006624
76,370,ThreeLinesControl,0.0,0.0,0.1,0.01995262314968879,1,0.7399868949996744
76,371,FarHighWide_null,0.5,0.25,0.03,0.025118864315095794,1,0.49074453599860135
76,372,FarLowWide,0.03,0.25,0.5,0.031622776601683784,1,0.5358973570000671
76,373,FarHighWide,0.5,0.25,0.03,0.00794328234724281,1,0.2778549380000186
76,374,FarHighWide,0.5,0.25,0.03,0.0063095734448019285,0,0.4202875529990706
76,375,FarLowWide,0.03,0.25,0.5,0.02511886431509579,0,0.36203927300084615
76,376,FarLowNarrow,0.1,0.15,0.2,0.03981071705534971,1,0.4885857089993806
76,377,ThreeLinesControl,0.0,0.0,0.1,0.015848931924611127,0,0.43888194400096836
76,378,FarLowNarrow,0.1,0.15,0.2,0.031622776601683784,1,0.5094939010014059
76,379,Constant,0.1,0.1,0.1,0.015848931924611127,1,0.507038415000352
76,380,FarLowWide,0.03,0.25,0.5,0.031622776601683784,0,0.46225941899865575
76,381,ThreeLinesControl,0.0,0.0,0.1,0.01995262314968879,1,0.5404568320009275
76,382,FarHighWide,0.5,0.25,0.03,0.00794328234724281,0,0.5302966199997172
76,383,FarLowNarrow,0.1,0.15,0.2,0.02511886431509579,1,0.5734167989994603
76,384,FarLowWide_null,0.03,0.25,0.5,0.031622776601683784,1,0.3957965019999392
76,385,Constant,0.1,0.1,0.1,0.012589254117941666,0,0.7380749830008426
76,386,FarLowNarrow_null,0.1,0.15,0.2,0.03981071705534971,1,0.42203186900042056
76,387,FarHighWide,0.5,0.25,0.03,0.009999999999999995,0,0.6592094489988085
76,388,Constant,0.1,0.1,0.1,0.015848931924611127,1,0.5292463050009246
76,389,FarLowNarrow,0.1,0.15,0.2,0.01995262314968879,0,0.5195306440000422
76,390,FarLowNarrow_null,0.1,0.15,0.2,0.031622776601683784,1,0.7976053110014618
76,391,FarLowWide,0.03,0.25,0.5,0.03981071705534971,1,0.3478897290005989
76,392,FarLowNarrow_null,0.1,0.15,0.2,0.02511886431509579,1,0.41004757300106576
76,393,ThreeLinesControl,0.0,0.0,0.1,0.015848931924611127,0,0.536069176001547
76,394,Constant,0.1,0.1,0.1,0.012589254117941666,1,0.4454666210003779
76,395,FarLowWide,0.03,0.25,0.5,0.031622776601683784,0,0.36347320300046704
76,396,FarHighWide,0.5,0.25,0.03,0.012589254117941666,0,0.6031393409994052
76,397,FarLowNarrow,0.1,0.15,0.2,0.025118864315095794,0,0.7169504699995741
76,398,FarLowWide,0.03,0.25,0.5,0.03981071705534971,1,0.3867911439992895
76,399,Constant,0.1,0.1,0.1,0.009999999999999995,0,1.045948192000651
76,400,ThreeLinesControl,0.0,0.0,0.1,0.01995262314968879,0,0.5240961210001842
76,401,FarLowNarrow,0.1,0.15,0.2,0.031622776601683784,1,0.4343981330002862
76,402,FarLowWide,0.03,0.25,0.5,0.031622776601683784,0,99
76,403,FarLowNarrow,0.1,0.15,0.2,0.02511886431509579,1,0.42864609100070084
76,404,FarHighNarrow,0.2,0.15,0.1,0.015848931924611127,0,0.5946703869994963
76,405,ThreeLinesControl,0.0,0.0,0.1,0.025118864315095794,0,0.5050065839986928
76,406,FarHighWide,0.5,0.25,0.03,0.015848931924611127,1,0.5979925360006746
76,407,FarHighWide,0.5,0.25,0.03,0.012589254117941666,0,0.6843570199998794
76,408,FarHighWide,0.5,0.25,0.03,0.015848931924611127,0,0.4422203989997797
76,409,FarHighWide,0.5,0.25,0.03,0.01995262314968879,0,0.4086659429995052
76,410,Constant,0.1,0.1,0.1,0.012589254117941666,0,0.6776748169995699
76,411,FarLowWide,0.03,0.25,0.5,0.03981071705534971,1,0.48375287400085654
76,412,Constant,0.1,0.1,0.1,0.015848931924611127,1,0.7057529909998266
76,413,ThreeLinesControl_null,0.0,0.0,0.1,0.06309573444801932,1,0.34909354299998085
76,414,FarLowNarrow,0.1,0.15,0.2,0.01995262314968879,0,0.4352001229999587
76,415,FarLowNarrow,0.1,0.15,0.2,0.025118864315095794,1,0.5664461319993279
76,416,Constant,0.1,0.1,0.1,0.012589254117941666,0,0.9245764450006391
76,417,Constant,0.1,0.1,0.1,0.015848931924611127,0,0.4427022030013177
76,418,FarHighWide,0.5,0.25,0.03,0.025118864315095794,0,0.8149253809988295
76,419,ThreeLinesControl,0.0,0.0,0.1,0.031622776601683784,1,0.4050130050000007
76,420,FarHighNarrow,0.2,0.15,0.1,0.01995262314968879,0,0.8190108830003737
76,421,FarLowNarrow,0.1,0.15,0.2,0.01995262314968879,0,0.4412719219999417
76,422,FarLowWide,0.03,0.25,0.5,0.031622776601683784,0,0.4555670749996352
76,423,FarHighNarrow,0.2,0.15,0.1,0.025118864315095794,0,0.4374000799998612
76,424,FarHighWide,0.5,0.25,0.03,0.031622776601683784,0,0.5626777279994712
76,425,ThreeLinesControl,0.0,0.0,0.1,0.02511886431509579,0,0.369766294999863
76,426,FarLowWide_null,0.03,0.25,0.5,0.02511886431509579,1,0.4699889969997457
76,427,FarLowWide,0.03,0.25,0.5,0.03981071705534971,1,0.33226072100114834
76,428,FarLowNarrow,0.1,0.15,0.2,0.025118864315095794,1,0.35423693700067815
76,429,FarLowWide,0.03,0.25,0.5,0.031622776601683784,1,0.46135312800106476
76,430,FarHighWide,0.5,0.25,0.03,0.03981071705534971,1,0.43568515599872626
76,431,Constant,0.1,0.1,0.1,0.01995262314968879,1,0.4738736389990663
76,432,ThreeLinesControl,0.0,0.0,0.1,0.031622776601683784,1,0.2603550379990338
76,433,FarHighNarrow,0.2,0.15,0.1,0.031622776601683784,1,0.39514667600087705
76,434,FarLowNarrow,0.1,0.15,0.2,0.01995262314968879,1,0.3360833659990021
76,435,Constant,0.1,0.1,0.1,0.015848931924611127,1,0.33331642799930705
76,436,FarLowNarrow,0.1,0.15,0.2,0.015848931924611127,1,0.25922605199957616
76,437,ThreeLinesControl,0.0,0.0,0.1,0.02511886431509579,1,0.4254805420005141
76,438,ThreeLinesControl,0.0,0.0,0.1,0.01995262314968879,1,0.36785038800007896
76,439,Constant,0.1,0.1,0.1,0.012589254117941666,0,0.5260719979996793
76,440,FarHighNarrow,0.2,0.15,0.1,0.02511886431509579,1,0.42822156399961386
76,441,Constant,0.1,0.1,0.1,0.015848931924611127,1,0.266202159000386
76,442,FarLowWide_null,0.03,0.25,0.5,0.01995262314968879,1,0.4336712340009399
76,443,FarLowNarrow,0.1,0.15,0.2,0.012589254117941666,0,0.5025771710006666
76,444,Constant,0.1,0.1,0.1,0.012589254117941666,1,0.2846311289995356
76,445,Constant,0.1,0.1,0.1,0.009999999999999995,0,0.4479910390000441
76,446,FarLowNarrow,0.1,0.15,0.2,0.015848931924611127,1,0.3258561050006392
76,447,FarLowWide,0.03,0.25,0.5,0.02511886431509579,1,0.5229240730004676
76,448,FarLowNarrow,0.1,0.15,0.2,0.012589254117941666,0,0.4303611470004398
76,449,FarLowNarrow,0.1,0.15,0.2,0.015848931924611127,0,0.3884672110016254
76,450,FarHighNarrow,0.2,0.15,0.1,0.01995262314968879,1,0.7384557519999362
76,451,Constant,0.1,0.1,0.1,0.012589254117941666,0,0.49589142500008165
76,452,FarLowWide,0.03,0.25,0.5,0.01995262314968879,0,0.38169197299976076
76,453,FarLowNarrow,0.1,0.15,0.2,0.01995262314968879,0,0.3960512720004772
76,454,FarLowWide,0.03,0.25,0.5,0.025118864315095794,0,0.37028082399956475
76,455,FarLowWide,0.03,0.25,0.5,0.031622776601683784,0,0.8303617389992723
76,456,ThreeLinesControl,0.0,0.0,0.1,0.015848931924611127,0,0.6294714069990732
76,457,FarHighNarrow,0.2,0.15,0.1,0.015848931924611127,0,0.40382993499952136
76,458,FarHighNarrow,0.2,0.15,0.1,0.01995262314968879,0,0.3700238419987727
76,459,FarHighNarrow,0.2,0.15,0.1,0.025118864315095794,1,0.35086727000089013
76,460,FarLowNarrow,0.1,0.15,0.2,0.025118864315095794,1,0.5489735539995308
76,461,ThreeLinesControl,0.0,0.0,0.1,0.01995262314968879,0,0.5220212829990487
76,462,FarHighWide,0.5,0.25,0.03,0.031622776601683784,1,0.42235978200005775
76,463,FarHighWide,0.5,0.25,0.03,0.02511886431509579,1,0.4194793619990378
76,464,Constant,0.1,0.1,0.1,0.015848931924611127,0,0.7346636870006478
76,465,FarLowWide,0.03,0.25,0.5,0.03981071705534971,1,0.4208282859999599
76,466,Constant,0.1,0.1,0.1,0.01995262314968879,0,0.5470201510015613
76,467,Constant,0.1,0.1,0.1,0.025118864315095794,1,0.5521884810004849
76,468,FarLowNarrow,0.1,0.15,0.2,0.01995262314968879,0,0.9023259860005055
76,469,FarHighWide,0.5,0.25,0.03,0.01995262314968879,1,0.5558779109996976
76,470,FarHighWide,0.5,0.25,0.03,0.015848931924611127,0,0.6586660129996744
76,471,Constant_null,0.1,0.1,0.1,0.05011872336272722,1,0.7286682640005893
76,472,FarLowWide,0.03,0.25,0.5,0.031622776601683784,1,0.3830581380007061
76,473,FarHighNarrow,0.2,0.15,0.1,0.01995262314968879,1,0.6611002219997317
76,474,ThreeLinesControl,0.0,0.0,0.1,0.025118864315095794,1,0.42036175100110995
76,475,ThreeLinesControl,0.0,0.0,0.1,0.01995262314968879,1,0.31231902000035916
76,476,Constant,0.1,0.1,0.1,0.01995262314968879,1,0.5186313159993006
76,477,FarLowWide,0.03,0.25,0.5,0.02511886431509579,1,0.6118704239997896
76,478,FarLowWide,0.03,0.25,0.5,0.01995262314968879,1,0.4555830160006735
76,479,FarHighWide,0.5,0.25,0.03,0.01995262314968879,1,0.5819800370009034
76,480,FarLowNarrow,0.1,0.15,0.2,0.025118864315095794,1,0.6983017469992774
76,481,FarHighNarrow_null,0.2,0.15,0.1,0.06309573444801932,1,0.5215385850005987
76,482,FarHighWide,0.5,0.25,0.03,0.015848931924611127,0,0.6636455200005003
76,483,ThreeLinesControl,0.0,0.0,0.1,0.015848931924611127,1,0.642602050998903
76,484,ThreeLinesControl,0.0,0.0,0.1,0.012589254117941666,0,0.5604196859985677
76,485,FarHighNarrow,0.2,0.15,0.1,0.015848931924611127,0,0.9589695640006539
76,486,FarLowWide,0.03,0.25,0.5,0.015848931924611127,0,0.3699852739991911
76,487,Constant,0.1,0.1,0.1,0.015848931924611127,1,0.6562941829997726
76,488,FarHighNarrow,0.2,0.15,0.1,0.01995262314968879,1,0.41926129899911757
76,489,FarHighNarrow,0.2,0.15,0.1,0.015848931924611127,1,0.529395576000752
76,490,FarHighWide,0.5,0.25,0.03,0.01995262314968879,0,0.6555402720005077
76,491,FarLowNarrow,0.1,0.15,0.2,0.01995262314968879,0,0.7019566999988456
76,492,FarLowNarrow,0.1,0.15,0.2,0.025118864315095794,0,0.5640128369996091
76,493,ThreeLinesControl,0.0,0.0,0.1,0.015848931924611127,1,0.6902030789988203
76,494,FarHighNarrow,0.2,0.15,0.1,0.012589254117941666,0,0.6152845089982293
76,495,FarHighWide,0.5,0.25,0.03,0.025118864315095794,1,0.5744573049996688
76,496,Constant,0.1,0.1,0.1,0.012589254117941666,0,0.451591343000473
76,497,Constant,0.1,0.1,0.1,0.015848931924611127,1,0.5617786360016908
76,498,FarLowWide,0.03,0.25,0.5,0.01995262314968879,0,0.4172283570005675
76,499,FarLowNarrow,0.1,0.15,0.2,0.031622776601683784,1,0.4520232320010109
76,500,FarLowWide,0.03,0.25,0.5,0.025118864315095794,0,0.7702677960005531
76,501,FarHighNarrow,0.2,0.15,0.1,0.015848931924611127,0,99
76,502,FarHighWide,0.5,0.25,0.03,0.01995262314968879,0,99
76,503,ThreeLinesControl,0.0,0.0,0.1,0.012589254117941666,0,99
76,504,FarHighWide,0.5,0.25,0.03,0.025118864315095794,0,99
76,505,FarHighNarrow,0.2,0.15,0.1,0.01995262314968879,0,99
76,506,FarHighWide,0.5,0.25,0.03,0.031622776601683784,0,99
76,507,FarHighNarrow,0.2,0.15,0.1,0.025118864315095794,0,99
76,508,ThreeLinesControl,0.0,0.0,0.1,0.015848931924611127,0,99
76,509,Constant,0.1,0.1,0.1,0.012589254117941666,0,99
76,510,Constant,0.1,0.1,0.1,0.015848931924611127,0,99
76,511,FarHighWide,0.5,0.25,0.03,0.03981071705534971,0,99
76,512,FarLowNarrow,0.1,0.15,0.2,0.02511886431509579,0,99
76,513,FarHighNarrow,0.2,0.15,0.1,0.031622776601683784,0,99
76,514,ThreeLinesControl,0.0,0.0,0.1,0.01995262314968879,0,99
76,515,FarLowNarrow,0.1,0.15,0.2,0.031622776601683784,0,99
76,516,ThreeLinesControl,0.0,0.0,0.1,0.025118864315095794,0,99
76,517,ThreeLinesControl,0.0,0.0,0.1,0.031622776601683784,0,99
76,518,ThreeLinesControl,0.0,0.0,0.1,0.03981071705534971,0,99
76,519,Constant,0.1,0.1,0.1,0.01995262314968879,0,99
76,520,FarHighWide,0.5,0.25,0.03,0.05011872336272721,0,99
76,521,FarHighNarrow,0.2,0.15,0.1,0.03981071705534971,0,99
76,522,FarHighWide,0.5,0.25,0.03,0.0630957344480193,0,99
76,523,FarLowWide,0.03,0.25,0.5,0.031622776601683784,0,99
76,524,FarLowNarrow,0.1,0.15,0.2,0.03981071705534971,0,99
76,525,FarHighNarrow,0.2,0.15,0.1,0.05011872336272721,0,99
76,526,FarLowNarrow,0.1,0.15,0.2,0.05011872336272721,0,99
76,527,Constant,0.1,0.1,0.1,0.025118864315095794,0,99
76,528,FarHighWide,0.5,0.25,0.03,0.07943282347242812,0,99
76,529,FarLowNarrow,0.1,0.15,0.2,0.0630957344480193,0,99
76,530,FarHighNarrow,0.2,0.15,0.1,0.0630957344480193,0,99
76,531,ThreeLinesControl,0.0,0.0,0.1,0.05011872336272721,0,99
76,532,FarLowWide,0.03,0.25,0.5,0.03981071705534971,0,99
76,533,FarHighWide,0.5,0.25,0.03,0.09999999999999998,0,99
76,534,FarLowNarrow,0.1,0.15,0.2,0.07943282347242812,0,99
76,535,FarHighWide,0.5,0.25,0.03,0.1,0,99
76,536,Constant,0.1,0.1,0.1,0.031622776601683784,0,99
76,537,FarLowWide_null,0.03,0.25,0.5,0.015848931924611127,0,99
76,538,FarHighNarrow,0.2,0.15,0.1,0.07943282347242812,0,99
76,539,FarLowWide,0.03,0.25,0.5,0.05011872336272721,0,99
76,540,FarLowWide,0.03,0.25,0.5,0.0630957344480193,0,99
76,541,Constant,0.1,0.1,0.1,0.03981071705534971,0,99
76,542,ThreeLinesControl,0.0,0.0,0.1,0.0630957344480193,0,99
76,543,FarHighWide,0.5,0.25,0.03,0.1,0,99
76,544,FarHighWide_null,0.5,0.25,0.03,0.01995262314968879,0,99
76,545,ThreeLinesControl,0.0,0.0,0.1,0.07943282347242812,0,99
76,546,FarHighNarrow,0.2,0.15,0.1,0.09999999999999998,0,99
76,547,FarHighWide,0.5,0.25,0.03,0.1,0,99
76,548,Constant,0.1,0.1,0.1,0.05011872336272721,0,99
76,549,ThreeLinesControl_null,0.0,0.0,0.1,0.05011872336272722,0,99
76,550,Constant,0.1,0.1,0.1,0.0630957344480193,0,99
76,551,FarLowWide,0.03,0.25,0.5,0.07943282347242812,0,99
76,552,ThreeLinesControl,0.0,0.0,0.1,0.09999999999999998,0,99
76,553,FarHighWide,0.5,0.25,0.03,0.1,0,99
76,554,FarLowNarrow_null,0.1,0.15,0.2,0.01995262314968879,0,99
76,555,FarLowWide,0.03,0.25,0.5,0.09999999999999998,0,99
76,556,FarHighWide,0.5,0.25,0.03,0.1,0,99
76,557,ThreeLinesControl,0.0,0.0,0.1,0.1,0,99
76,558,FarHighNarrow,0.2,0.15,0.1,0.1,0,99
76,559,FarLowWide,0.03,0.25,0.5,0.1,0,99
76,560,ThreeLinesControl,0.0,0.0,0.1,0.1,0,99
76,561,Constant,0.1,0.1,0.1,0.07943282347242812,0,99
76,562,FarHighNarrow,0.2,0.15,0.1,0.1,0,99
76,563,FarHighNarrow_null,0.2,0.15,0.1,0.05011872336272722,0,99
76,564,FarLowNarrow,0.1,0.15,0.2,0.09999999999999998,0,99
76,565,FarLowWide,0.03,0.25,0.5,0.1,0,99
76,566,FarLowWide,0.03,0.25,0.5,0.1,0,99
76,567,FarLowNarrow,0.1,0.15,0.2,0.1,0,99
76,568,FarLowNarrow,0.1,0.15,0.2,0.1,0,99
76,569,FarLowWide,0.03,0.25,0.5,0.1,0,99
76,570,FarHighNarrow,0.2,0.15,0.1,0.1,0,99
76,571,FarHighWide,0.5,0.25,0.03,0.1,0,99
76,572,FarLowNarrow,0.1,0.15,0.2,0.1,0,99
76,573,FarHighWide,0.5,0.25,0.03,0.1,0,99
76,574,ThreeLinesControl,0.0,0.0,0.1,0.1,0,99
76,575,FarLowNarrow,0.1,0.15,0.2,0.1,0,99
76,576,ThreeLinesControl,0.0,0.0,0.1,0.1,0,99
76,577,FarHighWide,0.5,0.25,0.03,0.1,0,99
76,578,FarLowNarrow,0.1,0.15,0.2,0.1,0,99
76,579,FarHighNarrow,0.2,0.15,0.1,0.1,0,99
76,580,Constant,0.1,0.1,0.1,0.09999999999999998,0,99
76,581,ThreeLinesControl,0.0,0.0,0.1,0.1,0,99
76,582,FarLowWide,0.03,0.25,0.5,0.1,0,99
76,583,FarHighWide,0.5,0.25,0.03,0.1,0,99
76,584,FarLowNarrow_null,0.1,0.15,0.2,0.025118864315095794,0,99
76,585,FarHighWide,0.5,0.25,0.03,0.1,0,99
76,586,Constant,0.1,0.1,0.1,0.1,0,99
76,587,FarLowWide,0.03,0.25,0.5,0.1,0,99
76,588,Constant_null,0.1,0.1,0.1,0.03981071705534971,0,99
76,589,FarLowWide_null,0.03,0.25,0.5,0.01995262314968879,0,99
76,590,ThreeLinesControl,0.0,0.0,0.1,0.1,0,99
76,591,Constant,0.1,0.1,0.1,0.1,0,99
76,592,FarLowWide,0.03,0.25,0.5,0.1,0,99
76,593,Constant,0.1,0.1,0.1,0.1,0,99
76,594,Constant_null,0.1,0.1,0.1,0.05011872336272721,0,99
76,595,ThreeLinesControl,0.0,0.0,0.1,0.1,0,99
76,596,FarHighNarrow,0.2,0.15,0.1,0.1,0,99
76,597,FarHighWide,0.5,0.25,0.03,0.1,0,99
76,598,FarHighNarrow,0.2,0.15,0.1,0.1,0,99
76,599,FarLowWide,0.03,0.25,0.5,0.1,0,99
76,600,FarLowWide,0.03,0.25,0.5,0.1,0,99
76,601,FarHighNarrow_null,0.2,0.15,0.1,0.06309573444801932,0,0.22171071500088146
76,602,FarHighWide,0.5,0.25,0.03,0.1,1,0.3234094900017226
76,603,FarLowWide,0.03,0.25,0.5,0.1,0,0.28871689600055106
76,604,FarHighWide,0.5,0.25,0.03,0.07943282347242815,1,0.2868203839989292
76,605,ThreeLinesControl,0.0,0.0,0.1,0.1,1,0.28540469800100254
76,606,FarHighNarrow_null,0.2,0.15,0.1,0.07943282347242814,1,0.3560837149998406
76,607,FarHighNarrow,0.2,0.15,0.1,0.1,1,0.4195332689996576
76,608,FarLowNarrow,0.1,0.15,0.2,0.1,1,0.5751688220007054
76,609,Constant,0.1,0.1,0.1,0.1,1,0.8775576640000509
76,610,FarLowNarrow,0.1,0.15,0.2,0.07943282347242815,1,0.2761700170012773
76,611,FarLowNarrow,0.1,0.15,0.2,0.06309573444801932,0,99
76,612,FarLowNarrow,0.1,0.15,0.2,0.07943282347242814,1,0.5410449720002362
76,613,FarLowNarrow,0.1,0.15,0.2,0.06309573444801932,1,0.3713736070003506
76,614,FarLowWide,0.03,0.25,0.5,0.1,1,0.2062177799998608
76,615,FarLowNarrow,0.1,0.15,0.2,0.05011872336272722,1,0.21240058900002623
76,616,ThreeLinesControl,0.0,0.0,0.1,0.07943282347242815,1,0.23359577000155696
76,617,FarLowNarrow,0.1,0.15,0.2,0.03981071705534971,1,0.19204940400049964
76,618,FarHighWide,0.5,0.25,0.03,0.06309573444801932,1,0.18200566099949356
76,619,Constant,0.1,0.1,0.1,0.07943282347242815,1,0.1401903450005193
76,620,Constant,0.1,0.1,0.1,0.06309573444801932,1,0.1931034710014501
76,621,FarLowWide,0.03,0.25,0.5,0.07943282347242815,1,0.1997325650008861
76,622,FarLowNarrow,0.1,0.15,0.2,0.031622776601683784,1,0.1427351019992784
76,623,FarLowNarrow_null,0.1,0.15,0.2,0.031622776601683784,1,0.4047140500006208
76,624,FarHighNarrow,0.2,0.15,0.1,0.07943282347242815,1,0.3317574730008346
76,625,FarLowWide_null,0.03,0.25,0.5,0.025118864315095794,1,0.271250539999528
76,626,FarLowWide,0.03,0.25,0.5,0.06309573444801932,1,0.18869987299876811
76,627,FarHighWide,0.5,0.25,0.03,0.05011872336272722,1,0.35097476600094524
76,628,FarHighWide,0.5,0.25,0.03,0.03981071705534971,1,0.42971601499993994
76,629,ThreeLinesControl,0.0,0.0,0.1,0.06309573444801932,1,0.27544900000066264
76,630,Constant,0.1,0.1,0.1,0.05011872336272722,1,0.27888452899969707
76,631,ThreeLinesControl_null,0.0,0.0,0.1,0.06309573444801932,1,0.3649571559999458
76,632,FarLowWide,0.03,0.25,0.5,0.05011872336272722,1,0.2672307760003605
76,633,FarHighWide,0.5,0.25,0.03,0.031622776601683784,1,0.33635827299985976
76,634,ThreeLinesControl,0.0,0.0,0.1,0.05011872336272722,1,0.23812879599972803
76,635,FarLowWide,0.03,0.25,0.5,0.03981071705534971,1,0.2763884509986383
76,636,Constant,0.1,0.1,0.1,0.03981071705534971,1,0.306561787998362
76,637,ThreeLinesControl,0.0,0.0,0.1,0.03981071705534971,1,0.2650815449997026
76,638,FarHighWide,0.5,0.25,0.03,0.02511886431509579,1,0.4151332100009313
76,639,FarHighWide,0.5,0.25,0.03,0.01995262314968879,1,0.39726060800057894
76,640,FarLowWide,0.03,0.25,0.5,0.031622776601683784,1,0.308729881000545
76,641,Constant,0.1,0.1,0.1,0.031622776601683784,1,0.29632851899987145
76,642,FarHighWide,0.5,0.25,0.03,0.015848931924611127,1,0.4064572900006169
76,643,FarHighWide,0.5,0.25,0.03,0.012589254117941666,0,0.4086485009993339
76,644,Constant,0.1,0.1,0.1,0.02511886431509579,1,0.3986714309994568
76,645,FarLowNarrow,0.1,0.15,0.2,0.02511886431509579,1,0.3008505950001563
76,646,ThreeLinesControl,0.0,0.0,0.1,0.031622776601683784,1,0.32006845800060546
76,647,FarHighWide,0.5,0.25,0.03,0.015848931924611127,0,0.6142555070000526
76,648,Constant,0.1,0.1,0.1,0.01995262314968879,1,0.3002810620000673
76,649,Constant_null,0.1,0.1,0.1,0.0630957344480193,0,0.35463835400150856
76,650,FarLowNarrow,0.1,0.15,0.2,0.01995262314968879,0,0.8166243180003221
76,651,FarLowNarrow,0.1,0.15,0.2,0.025118864315095794,1,0.6778480019984272
76,652,FarLowWide,0.03,0.25,0.5,0.02511886431509579,0,99
76,653,FarLowNarrow,0.1,0.15,0.2,0.01995262314968879,1,0.5062867310007277
76,654,FarHighWide,0.5,0.25,0.03,0.01995262314968879,1,0.6244844650009327
76,655,FarHighWide,0.5,0.25,0.03,0.015848931924611127,1,0.4077923290005856
76,656,ThreeLinesControl,0.0,0.0,0.1,0.02511886431509579,1,0.6788552380003239
76,657,FarLowWide_null,0.03,0.25,0.5,0.01995262314968879,1,0.32195480199879967
76,658,FarHighWide,0.5,0.25,0.03,0.012589254117941666,1,0.3917486909995205
76,659,FarHighNarrow,0.2,0.15,0.1,0.06309573444801932,1,0.3101618769997003
76,660,FarLowWide,0.03,0.25,0.5,0.031622776601683784,1,0.3370672929995635
76,661,ThreeLinesControl,0.0,0.0,0.1,0.01995262314968879,0,0.6794638049996138
76,662,FarHighNarrow,0.2,0.15,0.1,0.05011872336272722,1,0.5222488469989912
76,663,FarLowWide,0.03,0.25,0.5,0.02511886431509579,0,0.7048082070014061
76,664,FarHighWide,0.5,0.25,0.03,0.009999999999999995,1,0.3829637700000603
76,665,Constant,0.1,0.1,0.1,0.015848931924611127,1,0.509141696998995
76,666,FarLowNarrow,0.1,0.15,0.2,0.015848931924611127,0,0.5137592730006872
76,667,FarLowWide,0.03,0.25,0.5,0.031622776601683784,1,0.36807398200107855
76,668,Constant,0.1,0.1,0.1,0.012589254117941666,1,0.47865694500069367
76,669,FarLowWide,0.03,0.25,0.5,0.02511886431509579,1,0.33265521400062426
76,670,ThreeLinesControl,0.0,0.0,0.1,0.025118864315095794,1,0.7947883899996668
76,671,ThreeLinesControl,0.0,0.0,0.1,0.01995262314968879,1,0.5613077199996042
76,672,FarLowWide,0.03,0.25,0.5,0.01995262314968879,0,0.4151252169995132
76,673,FarHighWide,0.5,0.25,0.03,0.00794328234724281,0,0.46716369800014945
76,674,FarHighWide,0.5,0.25,0.03,0.009999999999999995,0,0.545401077999486
76,675,FarHighNarrow,0.2,0.15,0.1,0.03981071705534971,1,0.302660454000943
76,676,ThreeLinesControl,0.0,0.0,0.1,0.015848931924611127,1,0.5138171890012018
76,677,Constant,0.1,0.1,0.1,0.009999999999999995,0,0.4402514229986991
76,678,Constant,0.1,0.1,0.1,0.012589254117941666,0,0.541907695998816
76,679,FarHighNarrow,0.2,0.15,0.1,0.031622776601683784,1,0.4516257579998637
76,680,ThreeLinesControl,0.0,0.0,0.1,0.012589254117941666,0,0.3829423389997828
76,681,FarLowNarrow,0.1,0.15,0.2,0.01995262314968879,0,0.4615100729988626
76,682,ThreeLinesControl,0.0,0.0,0.1,0.015848931924611127,1,0.48328335999940464
76,683,FarHighWide,0.5,0.25,0.03,0.012589254117941666,1,0.6169378450013028
76,684,FarLowWide,0.03,0.25,0.5,0.025118864315095794,1,0.5668357819995435
76,685,FarHighNarrow,0.2,0.15,0.1,0.02511886431509579,0,0.6277845929998875
76,686,FarLowWide,0.03,0.25,0.5,0.01995262314968879,0,0.4179643639999995
76,687,ThreeLinesControl,0.0,0.0,0.1,0.012589254117941666,0,0.424506351000673
76,688,FarHighWide,0.5,0.25,0.03,0.009999999999999995,1,0.5199500919989077
76,689,Constant,0.1,0.1,0.1,0.015848931924611127,1,0.4457433770003263
76,690,FarHighNarrow,0.2,0.15,0.1,0.031622776601683784,1,0.44183638200047426
76,691,FarHighWide,0.5,0.25,0.03,0.00794328234724281,0,0.44692754300012894
76,692,FarLowNarrow,0.1,0.15,0.2,0.025118864315095794,1,0.5791577700001653
76,693,FarLowWide,0.03,0.25,0.5,0.025118864315095794,0,0.5770449589999771
76,694,FarLowWide_null,0.03,0.25,0.5,0.015848931924611127,1,0.4703728049989877
76,695,FarLowWide,0.03,0.25,0.5,0.031622776601683784,1,0.41048969800067425
76,696,FarLowWide,0.03,0.25,0.5,0.02511886431509579,1,0.8006908819988894
76,697,FarLowWide_null,0.03,0.25,0.5,0.012589254117941666,1,0.8461504940005398
76,698,Constant_null,0.1,0.1,0.1,0.07943282347242812,1,0.5956659040002705
76,699,ThreeLinesControl,0.0,0.0,0.1,0.015848931924611127,0,0.4098247479996644
76,700,FarHighWide,0.5,0.25,0.03,0.009999999999999995,0,0.5438422999995964
76,701,FarLowWide,0.03,0.25,0.5,0.01995262314968879,0,0.4944736779998493
76,702,FarLowWide,0.03,0.25,0.5,0.025118864315095794,0,0.6528025179995893
76,703,ThreeLinesControl,0.0,0.0,0.1,0.01995262314968879,1,0.5233278050000081
76,704,FarHighWide,0.5,0.25,0.03,0.012589254117941666,1,0.5374179949994868
76,705,FarLowWide,0.03,0.25,0.5,0.031622776601683784,1,0.3589754409986199
76,706,Constant,0.1,0.1,0.1,0.012589254117941666,0,0.4822735609996016
76,707,FarLowNarrow,0.1,0.15,0.2,0.01995262314968879,0,0.42410398200081545
76,708,FarLowNarrow,0.1,0.15,0.2,0.025118864315095794,1,0.4352629690001777
76,709,FarHighWide_null,0.5,0.25,0.03,0.025118864315095794,0,0.441608321001695
76,710,FarLowNarrow,0.1,0.15,0.2,0.01995262314968879,1,0.3518768400008412
76,711,FarHighWide,0.5,0.25,0.03,0.009999999999999995,0,0.42775298499873315
76,712,FarLowWide,0.03,0.25,0.5,0.02511886431509579,1,1.2018578689985588
76,713,FarLowWide,0.03,0.25,0.5,0.01995262314968879,0,0.7922445709991734
76,714,FarHighNarrow,0.2,0.15,0.1,0.02511886431509579,1,0.37328709899884416
76,715,FarHighNarrow,0.2,0.15,0.1,0.01995262314968879,1,0.8831059169988293
76,716,FarLowWide_null,0.03,0.25,0.5,0.009999999999999995,1,0.7537335159995564
76,717,FarHighNarrow,0.2,0.15,0.1,0.015848931924611127,1,0.3036906559991621
76,718,FarLowWide,0.03,0.25,0.5,0.025118864315095794,0,0.5260361729997385
76,719,FarHighNarrow_null,0.2,0.15,0.1,0.06309573444801932,1,0.45235773000058543
76,720,FarLowWide,0.03,0.25,0.5,0.031622776601683784,0,1.1658842460001324
76,721,ThreeLinesControl,0.0,0.0,0.1,0.015848931924611127,1,0.5713496669995948
76,722,FarHighNarrow,0.2,0.15,0.1,0.012589254117941666,0,0.4173512050001591
76,723,FarLowNarrow,0.1,0.15,0.2,0.015848931924611127,1,0.4473252669995418
76,724,FarHighNarrow,0.2,0.15,0.1,0.015848931924611127,1,0.48587373600093997
76,725,FarHighNarrow,0.2,0.15,0.1,0.012589254117941666,0,0.5238338780000049
76,726,FarLowWide,0.03,0.25,0.5,0.03981071705534971,1,0.40992003599967575
76,727,FarHighWide,0.5,0.25,0.03,0.012589254117941666,0,0.44932997499927296
76,728,FarHighWide,0.5,0.25,0.03,0.015848931924611127,1,0.4153959550003492
76,729,FarLowNarrow,0.1,0.15,0.2,0.012589254117941666,0,0.38829976600027294
76,730,FarLowNarrow,0.1,0.15,0.2,0.015848931924611127,0,0.425536087999717
76,731,FarHighWide,0.5,0.25,0.03,0.012589254117941666,0,0.6446716580012435
76,732,Constant_null,0.1,0.1,0.1,0.0630957344480193,1,0.402814863000458
76,733,Constant,0.1,0.1,0.1,0.015848931924611127,1,0.42508336500031874
76,734,FarLowWide,0.03,0.25,0.5,0.031622776601683784,1,0.3239744390011765
76,735,Constant,0.1,0.1,0.1,0.012589254117941666,0,0.5224170090004918
76,736,ThreeLinesControl,0.0,0.0,0.1,0.012589254117941666,0,0.5042839829984587
76,737,Constant,0.1,0.1,0.1,0.015848931924611127,1,0.38153989400052524
76,738,FarHighWide,0.5,0.25,0.03,0.015848931924611127,1,0.6038765360008256
76,739,FarHighWide_null,0.5,0.25,0.03,0.031622776601683784,1,0.4899876020008378
76,740,FarLowNarrow,0.1,0.15,0.2,0.01995262314968879,0,0.43891926200012676
76,741,FarLowNarrow,0.1,0.15,0.2,0.025118864315095794,1,0.5414006460014207
76,742,FarHighWide_null,0.5,0.25,0.03,0.02511886431509579,1,0.4911095239986025
76,743,Constant_null,0.1,0.1,0.1,0.050118723362727206,1,0.5308662820007157
76,744,ThreeLinesControl,0.0,0.0,0.1,0.015848931924611127,1,0.5368967089998478
76,745,FarLowWide,0.03,0.25,0.5,0.02511886431509579,1,0.46087700099997164
76,746,ThreeLinesControl,0.0,0.0,0.1,0.012589254117941666,0,0.43447010799900454
76,747,FarLowNarrow,0.1,0.15,0.2,0.01995262314968879,0,0.44605560899981356
76,748,FarHighNarrow,0.2,0.15,0.1,0.015848931924611127,1,0.46840825300023425
76,749,Constant,0.1,0.1,0.1,0.012589254117941666,0,0.5064627259998815
76,750,ThreeLinesControl,0.0,0.0,0.1,0.015848931924611127,0,0.5255904950008699
76,751,ThreeLinesControl,0.0,0.0,0.1,0.01995262314968879,1,0.47578382000028796
76,752,FarHighWide,0.5,0.25,0.03,0.012589254117941666,0,0.45785425399844826
76,753,FarHighWide,0.5,0.25,0.03,0.015848931924611127,1,0.4709136099991156
76,754,FarHighNarrow,0.2,0.15,0.1,0.012589254117941666,0,0.7333332449998125
76,755,FarLowWide,0.03,0.25,0.5,0.01995262314968879,0,0.5231393930007471
76,756,FarHighNarrow,0.2,0.15,0.1,0.015848931924611127,1,0.6324590700005501
76,757,FarHighNarrow,0.2,0.15,0.1,0.012589254117941666,0,0.5825585209986457
76,758,FarHighNarrow,0.2,0.15,0.1,0.015848931924611127,1,0.5578928410013759
76,759,FarLowWide,0.03,0.25,0.5,0.025118864315095794,1,0.652106764000564
76,760,FarHighNarrow,0.2,0.15,0.1,0.012589254117941666,0,0.49952792399926693
76,761,FarLowWide,0.03,0.25,0.5,0.01995262314968879,1,0.5033140650011774
76,762,ThreeLinesControl,0.0,0.0,0.1,0.015848931924611127,1,0.525226854999346
76,763,Constant,0.1,0.1,0.1,0.015848931924611127,0,0.562501816000804
76,764,FarHighWide,0.5,0.25,0.03,0.012589254117941666,0,0.6215670849996968
76,765,FarLowWide,0.03,0.25,0.5,0.015848931924611127,0,0.8838518690008641
76,766,FarLowWide,0.03,0.25,0.5,0.01995262314968879,0,0.8388585630000307
76,767,Constant,0.1,0.1,0.1,0.01995262314968879,1,0.5171154549989296
76,768,FarLowNarrow,0.1,0.15,0.2,0.025118864315095794,1,0.5791520860002493
76,769,Constant,0.1,0.1,0.1,0.015848931924611127,1,0.5293385810000473
76,770,Constant,0.1,0.1,0.1,0.012589254117941666,0,0.5264806089999183
76,771,FarHighWide,0.5,0.25,0.03,0.015848931924611127,1,0.5965398400003323
76,772,FarHighNarrow,0.2,0.15,0.1,0.015848931924611127,0,0.5868235910002113
76,773,FarLowNarrow,0.1,0.15,0.2,0.01995262314968879,0,0.48873052099952474
76,774,Constant,0.1,0.1,0.1,0.015848931924611127,0,0.4553158409999014
76,775,FarLowNarrow,0.1,0.15,0.2,0.025118864315095794,0,0.4696352749997459
76,776,FarLowNarrow,0.1,0.15,0.2,0.031622776601683784,1,0.3886059929991461
76,777,FarLowNarrow,0.1,0.15,0.2,0.02511886431509579,1,0.91944094199971
76,778,FarHighNarrow,0.2,0.15,0.1,0.01995262314968879,0,0.6296884269995644
76,779,FarHighNarrow,0.2,0.15,0.1,0.025118864315095794,1,0.7719960439990246
76,780,FarHighWide,0.5,0.25,0.03,0.012589254117941666,1,0.6152111900009913
76,781,Constant,0.1,0.1,0.1,0.01995262314968879,1,0.36509443999966606
76,782,FarHighNarrow,0.2,0.15,0.1,0.01995262314968879,0,0.459416677000263
76,783,Constant,0.1,0.1,0.1,0.015848931924611127,0,0.6303529890010395
76,784,ThreeLinesControl,0.0,0.0,0.1,0.012589254117941666,0,0.5170244960008858
76,785,FarHighNarrow,0.2,0.15,0.1,0.025118864315095794,1,0.40160274499976367
76,786,FarLowWide,0.03,0.25,0.5,0.025118864315095794,0,0.6409165369987022
76,787,Constant,0.1,0.1,0.1,0.01995262314968879,1,0.5739609650008788
76,788,ThreeLinesControl,0.0,0.0,0.1,0.015848931924611127,1,0.8525759710009879
76,789,FarHighNarrow,0.2,0.15,0.1,0.01995262314968879,0,0.5864799589999166
76,790,FarLowWide,0.03,0.25,0.5,0.031622776601683784,1,0.36840847399980703
76,791,FarLowWide,0.03,0.25,0.5,0.02511886431509579,1,0.45532414900117146
76,792,FarLowWide_null,0.03,0.25,0.5,0.00794328234724281,1,0.4220662210009323
76,793,FarLowNarrow,0.1,0.15,0.2,0.01995262314968879,1,0.5805911039988132
76,794,Constant,0.1,0.1,0.1,0.015848931924611127,1,0.38405174799845554
76,795,FarHighWide,0.5,0.25,0.03,0.009999999999999995,0,0.43728764400111686
76,796,FarHighNarrow,0.2,0.15,0.1,0.025118864315095794,1,0.3841970900011802
76,797,FarLowNarrow,0.1,0.15,0.2,0.015848931924611127,1,0.678564034998999
76,798,FarLowNarrow,0.1,0.15,0.2,0.012589254117941666,0,0.5078364340006374
76,799,FarLowNarrow,0.1,0.15,0.2,0.015848931924611127,1,0.591871627000728
76,800,Constant,0.1,0.1,0.1,0.012589254117941666,1,0.3342263249996904
76,801,FarLowNarrow,0.1,0.15,0.2,0.012589254117941666,0,0.4034674400008953
76,802,FarHighWide,0.5,0.25,0.03,0.012589254117941666,0,99
76,803,FarHighWide_null,0.5,0.25,0.03,0.01995262314968879,1,0.6473461450004834
76,804,Constant,0.1,0.1,0.1,0.009999999999999995,0,0.47767801099871576
76,805,FarLowNarrow,0.1,0.15,0.2,0.015848931924611127,1,0.5560310579985526
76,806,FarLowNarrow,0.1,0.15,0.2,0.012589254117941666,1,0.6021303179986717
76,807,FarHighNarrow,0.2,0.15,0.1,0.01995262314968879,1,0.48845318500025314
76,808,FarHighNarrow,0.2,0.15,0.1,0.015848931924611127,0,99
76,809,FarHighNarrow,0.2,0.15,0.1,0.01995262314968879,0,0.53247971699966
76,810,FarHighWide,0.5,0.25,0.03,0.015848931924611127,1,0.6084710959985387
76,811,FarHighWide_null,0.5,0.25,0.03,0.015848931924611127,1,0.405365303000508
76,812,FarLowNarrow,0.1,0.15,0.2,0.009999999999999995,0,0.35270015300011437
76,813,FarHighWide,0.5,0.25,0.03,0.012589254117941666,0,0.35080739600016386
76,814,FarLowWide,0.03,0.25,0.5,0.01995262314968879,0,0.4449012570003106
76,815,FarLowWide,0.03,0.25,0.5,0.025118864315095794,1,0.4814194390000921
76,816,FarHighWide,0.5,0.25,0.03,0.015848931924611127,1,0.5834327900010976
76,817,FarHighNarrow,0.2,0.15,0.1,0.025118864315095794,0,0.41243169699919235
76,818,FarLowNarrow,0.1,0.15,0.2,0.012589254117941666,0,0.658539309999469
76,819,FarHighNarrow,0.2,0.15,0.1,0.031622776601683784,1,0.4329376299992873
76,820,FarLowNarrow,0.1,0.15,0.2,0.015848931924611127,1,0.5749976160004735
76,821,Constant,0.1,0.1,0.1,0.012589254117941666,0,0.4695013200016547
76,822,FarLowNarrow,0.1,0.15,0.2,0.012589254117941666,0,0.5314476379990083
76,823,FarHighNarrow,0.2,0.15,0.1,0.02511886431509579,1,0.3859691859997838
76,824,ThreeLinesControl,0.0,0.0,0.1,0.012589254117941666,0,0.4636473489990749
76,825,ThreeLinesControl,0.0,0.0,0.1,0.015848931924611127,0,0.765612384000633
76,826,ThreeLinesControl,0.0,0.0,0.1,0.01995262314968879,1,0.4567946560000564
76,827,FarHighWide,0.5,0.25,0.03,0.012589254117941666,1,0.5190614650000498
76,828,Constant,0.1,0.1,0.1,0.015848931924611127,0,0.3972029159995145
76,829,FarLowWide,0.03,0.25,0.5,0.01995262314968879,1,0.632410059999529
76,830,FarLowWide,0.03,0.25,0.5,0.015848931924611127,0,0.7346943539996573
76,831,FarLowWide_null,0.03,0.25,0.5,0.0063095734448019285,1,0.48240101499868615
76,832,FarHighNarrow,0.2,0.15,0.1,0.01995262314968879,1,0.6088975010006834
76,833,ThreeLinesControl,0.0,0.0,0.1,0.015848931924611127,1,0.38298316999862436
76,834,ThreeLinesControl,0.0,0.0,0.1,0.012589254117941666,1,0.6203083939999487
76,835,FarLowWide,0.03,0.25,0.5,0.01995262314968879,0,0.6663430549997429
76,836,FarHighWide,0.5,0.25,0.03,0.009999999999999995,1,0.8406228300009388
76,837,FarHighWide,0.5,0.25,0.03,0.00794328234724281,1,0.5507345619989792
76,838,Constant,0.1,0.1,0.1,0.01995262314968879,1,0.35677365899937286
76,839,FarLowNarrow,0.1,0.15,0.2,0.015848931924611127,1,0.4822012310014543
76,840,FarLowWide,0.03,0.25,0.5,0.025118864315095794,0,0.45163297900035104
76,841,Constant,0.1,0.1,0.1,0.015848931924611127,0,0.37732329399841547
76,842,ThreeLinesControl,0.0,0.0,0.1,0.009999999999999995,1,0.4165444589998515
76,843,Constant,0.1,0.1,0.1,0.01995262314968879,0,0.46063460300138104
76,844,Constant,0.1,0.1,0.1,0.025118864315095794,0,0.4508445120009128
76,845,FarHighWide_null,0.5,0.25,0.03,0.012589254117941666,1,0.383775673000855
76,846,FarLowWide,0.03,0.25,0.5,0.031622776601683784,0,0.4760125649991096
76,847,Constant,0.1,0.1,0.1,0.031622776601683784,1,0.5224075689984602
76,848,FarHighNarrow,0.2,0.15,0.1,0.015848931924611127,1,0.4040145440012566
76,849,Constant,0.1,0.1,0.1,0.02511886431509579,1,0.5302426119997108
76,850,ThreeLinesControl,0.0,0.0,0.1,0.00794328234724281,0,0.4005242309995083
76,851,FarHighWide,0.5,0.25,0.03,0.0063095734448019285,0,0.5097313309997844
76,852,FarLowWide,0.03,0.25,0.5,0.03981071705534971,1,0.6037583970010019
76,853,FarHighWide,0.5,0.25,0.03,0.00794328234724281,0,0.5301253069992526
76,854,ThreeLinesControl,0.0,0.0,0.1,0.009999999999999995,0,0.5912018420003733
76,855,FarLowWide_null,0.03,0.25,0.5,0.005011872336272719,1,0.47744849599985173
76,856,FarLowNarrow,0.1,0.15,0.2,0.012589254117941666,0,0.7477654619997338
76,857,ThreeLinesControl,0.0,0.0,0.1,0.012589254117941666,0,0.4737825939992035
76,858,Constant,0.1,0.1,0.1,0.01995262314968879,1,0.44800426800065907
76,859,FarHighNarrow,0.2,0.15,0.1,0.012589254117941666,1,0.340271119001045
76,860,FarLowWide,0.03,0.25,0.5,0.031622776601683784,0,0.5218418639997253
76,861,FarHighWide,0.5,0.25,0.03,0.009999999999999995,0,0.8642394160015101
76,862,FarHighNarrow,0.2,0.15,0.1,0.009999999999999995,0,0.5473560740010726
76,863,Constant,0.1,0.1,0.1,0.015848931924611127,1,0.4977652900015528
76,864,FarLowNarrow,0.1,0.15,0.2,0.015848931924611127,0,0.5277307190008287
76,865,FarHighNarrow_null,0.2,0.15,0.1,0.05011872336272722,1,0.41101105699999607
76,866,FarHighNarrow,0.2,0.15,0.1,0.012589254117941666,1,0.5930518349996419
76,867,ThreeLinesControl,0.0,0.0,0.1,0.015848931924611127,0,0.4782703559994843
76,868,FarLowNarrow,0.1,0.15,0.2,0.01995262314968879,0,0.5163782589988841
76,869,FarHighNarrow,0.2,0.15,0.1,0.009999999999999995,0,99
76,870,FarLowNarrow,0.1,0.15,0.2,0.025118864315095794,1,0.4168015989998821
76,871,FarLowWide_null,0.03,0.25,0.5,0.00398107170553497,1,0.39873885799897835
76,872,ThreeLinesControl,0.0,0.0,0.1,0.01995262314968879,1,0.46800619100031327
76,873,Constant_null,0.1,0.1,0.1,0.039810717055349706,1,0.5634125690012297
76,874,FarHighWide,0.5,0.25,0.03,0.012589254117941666,0,0.48933630700048525
76,875,FarHighNarrow,0.2,0.15,0.1,0.012589254117941666,0,0.38131805500051996
76,876,FarLowNarrow,0.1,0.15,0.2,0.01995262314968879,0,0.49961154899938265
76,877,FarLowNarrow_null,0.1,0.15,0.2,0.02511886431509579,1,0.5206598750010016
76,878,FarHighWide_null,0.5,0.25,0.03,0.009999999999999995,0,0.5240159450004285
76,879,FarHighNarrow,0.2,0.15,0.1,0.015848931924611127,1,0.3708916190007585
76,880,FarHighWide,0.5,0.25,0.03,0.015848931924611127,0,0.36811610800032213
76,881,Constant,0.1,0.1,0.1,0.012589254117941666,1,0.6522244159987167
76,882,FarLowNarrow,0.1,0.15,0.2,0.025118864315095794,0,0.40948092399958114
76,883,FarHighNarrow,0.2,0.15,0.1,0.012589254117941666,1,0.31955622600071365
76,884,FarLowWide,0.03,0.25,0.5,0.03981071705534971,1,0.2136346160004905
76,885,FarLowNarrow,0.1,0.15,0.2,0.031622776601683784,1,0.283931214000404
76,886,ThreeLinesControl,0.0,0.0,0.1,0.015848931924611127,0,0.45807755299938435
76,887,FarLowNarrow,0.1,0.15,0.2,0.02511886431509579,1,0.5351710929990077
76,888,FarLowWide,0.03,0.25,0.5,0.031622776601683784,1,0.3413481959996716
76,889,FarLowWide,0.03,0.25,0.5,0.02511886431509579,0,0.4194427100010216
76,890,FarHighWide,0.5,0.25,0.03,0.01995262314968879,0,0.5465890909999871
76,891,FarHighWide,0.5,0.25,0.03,0.025118864315095794,1,0.34495169000001624
76,892,Constant,0.1,0.1,0.1,0.009999999999999995,0,0.5319727109999803
76,893,FarLowNarrow_null,0.1,0.15,0.2,0.01995262314968879,1,0.3777293090006424
76,894,FarLowWide,0.03,0.25,0.5,0.031622776601683784,1,0.34888377099923673
76,895,ThreeLinesControl,0.0,0.0,0.1,0.01995262314968879,1,0.3152436509990366
76,896,FarLowWide,0.03,0.25,0.5,0.02511886431509579,1,0.6497113590012304
76,897,ThreeLinesControl,0.0,0.0,0.1,0.015848931924611127,1,0.32454911500099115
76,898,ThreeLinesControl,0.0,0.0,0.1,0.012589254117941666,0,0.3706927210005233
76,899,ThreeLinesControl,0.0,0.0,0.1,0.015848931924611127,1,0.45687319500029844
76,900,FarLowNarrow,0.1,0.15,0.2,0.01995262314968879,1,0.28709838800023135
76,901,Constant,0.1,0.1,0.1,0.012589254117941666,1,0.3090419269992708
76,902,FarHighNarrow,0.2,0.15,0.1,0.009999999999999995,0,0.9235436470007699
76,903,FarHighWide,0.5,0.25,0.03,0.01995262314968879,1,0.3843891579999763
76,904,FarHighNarrow,0.2,0.15,0.1,0.012589254117941666,0,0.574582780000128
76,905,FarLowWide,0.03,0.25,0.5,0.01995262314968879,1,0.8382575730011013
76,906,Constant,0.1,0.1,0.1,0.009999999999999995,0,0.4923689290008042
76,907,FarLowNarrow,0.1,0.15,0.2,0.015848931924611127,1,0.5144742940010474
76,908,FarLowNarrow,0.1,0.15,0.2,0.012589254117941666,0,0.5264710800001922
76,909,FarHighNarrow,0.2,0.15,0.1,0.015848931924611127,1,0.4123417589999008
76,910,ThreeLinesControl,0.0,0.0,0.1,0.012589254117941666,0,0.433681415999672
76,911,FarLowNarrow,0.1,0.15,0.2,0.015848931924611127,1,0.49987634900026023
76,912,FarLowWide,0.03,0.25,0.5,0.015848931924611127,0,0.6581213850004133
76,913,FarLowWide,0.03,0.25,0.5,0.01995262314968879,1,0.8060571329988306
76,914,FarHighWide,0.5,0.25,0.03,0.015848931924611127,1,0.35524114899999404
76,915,FarHighWide,0.5,0.25,0.03,0.012589254117941666,0,0.5211182330003794
76,916,FarHighWide,0.5,0.25,0.03,0.015848931924611127,1,0.33564867400127696
76,917,FarHighWide,0.5,0.25,0.03,0.012589254117941666,0,0.3974829590006266
76,918,FarLowNarrow_null,0.1,0.15,0.2,0.015848931924611127,1,0.4358427490005852
76,919,FarLowNarrow,0.1,0.15,0.2,0.012589254117941666,0,0.6013589359990874
76,920,FarHighWide,0.5,0.25,0.03,0.015848931924611127,1,0.36806180799976573
76,921,FarHighWide,0.5,0.25,0.03,0.012589254117941666,0,0.47749151499920117
76,922,FarHighWide,0.5,0.25,0.03,0.015848931924611127,1,0.4595144539998728
76,923,FarHighNarrow,0.2,0.15,0.1,0.012589254117941666,1,0.4909456830009731
76,924,FarLowWide,0.03,0.25,0.5,0.015848931924611127,0,0.4614772120003181
76,925,FarLowWide,0.03,0.25,0.5,0.01995262314968879,1,0.6200218760004645
76,926,Constant_null,0.1,0.1,0.1,0.03162277660168378,1,0.6338788440007193
76,927,FarHighWide,0.5,0.25,0.03,0.012589254117941666,1,0.42932452199966065
76,928,ThreeLinesControl,0.0,0.0,0.1,0.015848931924611127,1,0.6033095250004408
76,929,FarHighNarrow_null,0.2,0.15,0.1,0.03981071705534971,1,0.4863640379990102
76,930,Constant,0.1,0.1,0.1,0.012589254117941666,0,0.7083646080009203
76,931,ThreeLinesControl,0.0,0.0,0.1,0.012589254117941666,0,0.6749017869988165
76,932,FarLowNarrow_null,0.1,0.15,0.2,0.012589254117941666,1,0.34477810399948794
76,933,FarLowNarrow,0.1,0.15,0.2,0.015848931924611127,1,0.34268704199894273
76,934,FarLowWide,0.03,0.25,0.5,0.015848931924611127,0,0.5974039840002661
76,935,FarLowWide,0.03,0.25,0.5,0.01995262314968879,0,0.5312854130006599
76,936,FarHighWide,0.5,0.25,0.03,0.009999999999999995,0,0.6006578600008652
76,937,FarHighWide,0.5,0.25,0.03,0.012589254117941666,0,0.478544129000511
76,938,Constant,0.1,0.1,0.1,0.015848931924611127,1,0.34900439900047786
76,939,FarLowNarrow,0.1,0.15,0.2,0.012589254117941666,0,0.4433614640001906
76,940,Constant,0.1,0.1,0.1,0.012589254117941666,0,0.3821993069996097
76,941,FarLowWide,0.03,0.25,0.5,0.025118864315095794,0,0.37235515599968494
76,942,Constant,0.1,0.1,0.1,0.015848931924611127,0,0.586109748999661
76,943,ThreeLinesControl,0.0,0.0,0.1,0.015848931924611127,1,0.6775679729998956
76,944,FarLowNarrow,0.1,0.15,0.2,0.015848931924611127,0,0.45975730900136114
76,945,FarHighNarrow_null,0.2,0.15,0.1,0.031622776601683784,1,0.45800530499946035
76,946,FarLowWide,0.03,0.25,0.5,0.031622776601683784,1,0.3901026389994513
76,947,ThreeLinesControl,0.0,0.0,0.1,0.012589254117941666,0,0.3712309950005874
76,948,FarLowWide,0.03,0.25,0.5,0.02511886431509579,1,0.4649384429994825
76,949,FarLowWide,0.03,0.25,0.5,0.01995262314968879,1,0.45551925799918536
76,950,Constant,0.1,0.1,0.1,0.01995262314968879,1,0.3815468350003357
76,951,FarHighNarrow,0.2,0.15,0.1,0.009999999999999995,0,0.6598998780009424
76,952,Constant,0.1,0.1,0.1,0.015848931924611127,0,0.6181088419998559
76,953,Constant,0.1,0.1,0.1,0.01995262314968879,1,0.3920696189998125
76,954,FarHighNarrow,0.2,0.15,0.1,0.012589254117941666,1,0.6063435779997235
76,955,FarLowWide,0.03,0.25,0.5,0.015848931924611127,1,0.5407268729995849
76,956,FarLowNarrow,0.1,0.15,0.2,0.01995262314968879,1,0.3465518350003549
76,957,Constant,0.1,0.1,0.1,0.015848931924611127,1,0.6455690499988123
76,958,Constant,0.1,0.1,0.1,0.012589254117941666,0,0.5311420310008543
76,959,FarHighNarrow,0.2,0.15,0.1,0.009999999999999995,1,0.36681215499993414
76,960,FarHighNarrow_null,0.2,0.15,0.1,0.02511886431509579,1,0.4807083800005785
76,961,ThreeLinesControl,0.0,0.0,0.1,0.015848931924611127,0,0.4523032819997752
76,962,ThreeLinesControl,0.0,0.0,0.1,0.01995262314968879,0,0.3863144850001845
76,963,FarHighNarrow,0.2,0.15,0.1,0.00794328234724281,0,0.3761751220008591
76,964,FarHighWide,0.5,0.25,0.03,0.015848931924611127,1,0.48652302300070005
76,965,Constant,0.1,0.1,0.1,0.015848931924611127,0,0.41248228599943104
76,966,FarHighWide,0.5,0.25,0.03,0.012589254117941666,0,0.6589085740015435
76,967,FarLowWide,0.03,0.25,0.5,0.012589254117941666,0,0.3757940839986986
76,968,FarLowNarrow_null,0.1,0.15,0.2,0.009999999999999995,1,0.30024420699919574
76,969,FarHighNarrow,0.2,0.15,0.1,0.009999999999999995,0,0.5381656139998086
76,970,FarLowWide,0.03,0.25,0.5,0.015848931924611127,0,0.3927116909999313
76,971,FarHighWide,0.5,0.25,0.03,0.015848931924611127,1,0.4397635459990852
76,972,Constant,0.1,0.1,0.1,0.01995262314968879,0,0.45864922200053115
76,973,Constant,0.1,0.1,0.1,0.025118864315095794,1,0.41680912300034834
76,974,FarLowNarrow,0.1,0.15,0.2,0.015848931924611127,0,0.47613019200070994
76,975,Constant,0.1,0.1,0.1,0.01995262314968879,0,0.5302868339986162
76,976,FarHighNarrow,0.2,0.15,0.1,0.012589254117941666,0,0.44060305499988317
76,977,FarLowNarrow,0.1,0.15,0.2,0.01995262314968879,0,0.4594314199985092
76,978,FarHighNarrow_null,0.2,0.15,0.1,0.01995262314968879,0,0.4895478139987972
76,979,Constant,0.1,0.1,0.1,0.025118864315095794,1,0.5200521530005062
76,980,ThreeLinesControl,0.0,0.0,0.1,0.025118864315095794,1,0.6140465079988644
76,981,ThreeLinesControl,0.0,0.0,0.1,0.01995262314968879,0,0.4039247519995115
76,982,FarHighWide_null,0.5,0.25,0.03,0.012589254117941666,1,0.536975295000957
76,983,FarHighNarrow_null,0.2,0.15,0.1,0.025118864315095794,1,0.47124613000050886
76,984,FarHighWide,0.5,0.25,0.03,0.012589254117941666,1,0.45355612699859194
76,985,Constant,0.1,0.1,0.1,0.01995262314968879,1,0.46001007899940305
76,986,Constant,0.1,0.1,0.1,0.015848931924611127,1,0.40169047599920304
76,987,Constant,0.1,0.1,0.1,0.012589254117941666,0,0.36928526399969996
76,988,ThreeLinesControl,0.0,0.0,0.1,0.025118864315095794,0,0.49218972800008487
76,989,FarHighNarrow,0.2,0.15,0.1,0.015848931924611127,1,0.45037659499939764
76,990,FarHighNarrow,0.2,0.15,0.1,0.012589254117941666,0,0.4404406929988909
76,991,FarLowNarrow,0.1,0.15,0.2,0.025118864315095794,1,0.45174748199860915
76,992,FarLowNarrow_null,0.1,0.15,0.2,0.00794328234724281,1,0.3857678639997175
76,993,FarHighWide,0.5,0.25,0.03,0.009999999999999995,1,0.8048511529996176
76,994,FarLowNarrow,0.1,0.15,0.2,0.01995262314968879,1,0.41109198499907507
76,995,FarHighWide,0.5,0.25,0.03,0.00794328234724281,0,0.3532862659994862
76,996,FarLowWide,0.03,0.25,0.5,0.01995262314968879,0,0.5032311030008714
76,997,FarLowNarrow,0.1,0.15,0.2,0.015848931924611127,0,0.42939953499990224
76,998,FarHighNarrow,0.2,0.15,0.1,0.015848931924611127,1,0.4745498470001621
76,999,FarHighNarrow_null,0.2,0.15,0.1,0.01995262314968879,1,0.7285635990010633
76,1000,ThreeLinesControl,0.0,0.0,0.1,0.031622776601683784,1,0.30320833699988725
76,1001,FarLowNarrow,0.1,0.15,0.2,0.01995262314968879,1,0.3161353280011099
76,1002,ThreeLinesControl,0.0,0.0,0.1,0.02511886431509579,1,0.6596279509994929
76,1003,ThreeLinesControl_null,0.0,0.0,0.1,0.05011872336272722,1,0.44275923399982275
76,1004,Constant,0.1,0.1,0.1,0.015848931924611127,0,0.44614749700122047
76,1005,Constant,0.1,0.1,0.1,0.01995262314968879,0,0.38742046900006244
76,1006,FarLowWide,0.03,0.25,0.5,0.025118864315095794,1,0.3458870640006353
76,1007,FarHighWide_null,0.5,0.25,0.03,0.009999999999999995,1,0.5735004660000413
76,1008,Constant,0.1,0.1,0.1,0.025118864315095794,0,99
76,1009,FarLowWide,0.03,0.25,0.5,0.01995262314968879,0,0.3374336380002205
76,1010,FarHighWide,0.5,0.25,0.03,0.009999999999999995,1,0.4853638599997794
76,1011,FarLowWide,0.03,0.25,0.5,0.025118864315095794,1,0.3864810570012196
76,1012,ThreeLinesControl,0.0,0.0,0.1,0.01995262314968879,1,0.36883472699992126
76,1013,Constant,0.1,0.1,0.1,0.031622776601683784,1,0.32691589200112503
76,1014,FarHighWide,0.5,0.25,0.03,0.00794328234724281,1,0.3169565749994945
76,1015,Constant,0.1,0.1,0.1,0.02511886431509579,1,0.5070633089999319
76,1016,FarHighNarrow,0.2,0.15,0.1,0.012589254117941666,1,0.5453645650013641
76,1017,FarHighNarrow,0.2,0.15,0.1,0.009999999999999995,0,0.4874087009993673
76,1018,FarHighWide,0.5,0.25,0.03,0.0063095734448019285,0,0.4048131010003999
76,1019,FarLowNarrow,0.1,0.15,0.2,0.015848931924611127,1,0.37216769299993757
76,1020,FarLowWide,0.03,0.25,0.5,0.01995262314968879,1,0.45091437900009623
76,1021,FarLowWide,0.03,0.25,0.5,0.015848931924611127,1,0.8382239940001455
76,1022,Constant,0.1,0.1,0.1,0.01995262314968879,1,0.5473548150002898
76,1023,Constant,0.1,0.1,0.1,0.015848931924611127,0,0.5264509129992803
76,1024,Constant_null,0.1,0.1,0.1,0.025118864315095787,1,0.38859413099999074
76,1025,FarLowNarrow,0.1,0.15,0.2,0.012589254117941666,0,0.3616890319990489
76,1026,ThreeLinesControl,0.0,0.0,0.1,0.015848931924611127,0,0.429741470999943
76,1027,FarLowNarrow,0.1,0.15,0.2,0.015848931924611127,0,0.7401890420005657
76,1028,ThreeLinesControl,0.0,0.0,0.1,0.01995262314968879,0,99
76,1029,FarHighWide,0.5,0.25,0.03,0.00794328234724281,1,0.735233518998939
76,1030,FarLowNarrow,0.1,0.15,0.2,0.01995262314968879,1,0.3574584319994756
76,1031,FarLowWide_null,0.03,0.25,0.5,0.0031622776601683772,1,0.3314275950015144
76,1032,FarHighNarrow_null,0.2,0.15,0.1,0.015848931924611127,1,0.5298148980000406
76,1033,Constant,0.1,0.1,0.1,0.01995262314968879,1,0.4478912009999476
76,1034,FarLowWide,0.03,0.25,0.5,0.012589254117941666,0,99
76,1035,ThreeLinesControl,0.0,0.0,0.1,0.025118864315095794,0,0.4192244509995362
76,1036,ThreeLinesControl,0.0,0.0,0.1,0.031622776601683784,0,0.3691728680005326
76,1037,ThreeLinesControl,0.0,0.0,0.1,0.03981071705534971,1,0.30811889200049336
76,1038,FarHighNarrow,0.2,0.15,0.1,0.012589254117941666,0,0.3383526460002031
76,1039,FarHighNarrow,0.2,0.15,0.1,0.015848931924611127,0,99
76,1040,Constant_null,0.1,0.1,0.1,0.019952623149688785,1,0.4199568240001099
76,1041,FarLowNarrow,0.1,0.15,0.2,0.015848931924611127,0,0.37818435999906796
76,1042,FarLowNarrow,0.1,0.15,0.2,0.01995262314968879,1,0.4381837759992777
76,1043,FarLowNarrow,0.1,0.15,0.2,0.015848931924611127,0,0.540512003000913
76,1044,FarHighWide,0.5,0.25,0.03,0.0063095734448019285,0,0.5146163730005355
76,1045,FarLowWide,0.03,0.25,0.5,0.015848931924611127,0,0.35260304999974323
76,1046,FarLowNarrow,0.1,0.15,0.2,0.01995262314968879,1,0.5577722520010866
76,1047,FarLowWide,0.03,0.25,0.5,0.01995262314968879,0,0.395742736000102
76,1048,ThreeLinesControl,0.0,0.0,0.1,0.031622776601683784,1,0.47492923100071494
76,1049,FarHighNarrow,0.2,0.15,0.1,0.01995262314968879,0,0.890650215000278
76,1050,ThreeLinesControl,0.0,0.0,0.1,0.02511886431509579,1,0.7423185119987465
76,1051,FarLowNarrow,0.1,0.15,0.2,0.015848931924611127,0,99
76,1052,FarLowNarrow,0.1,0.15,0.2,0.01995262314968879,1,0.5471311290002632
76,1053,FarHighNarrow,0.2,0.15,0.1,0.025118864315095794,1,0.42979771200043615
76,1054,FarHighWide,0.5,0.25,0.03,0.00794328234724281,0,0.459976997000922
76,1055,FarLowNarrow,0.1,0.15,0.2,0.015848931924611127,0,99
76,1056,FarHighNarrow,0.2,0.15,0.1,0.01995262314968879,0,0.37335290200098825
76,1057,Constant,0.1,0.1,0.1,0.015848931924611127,0,0.5463616880006157
76,1058,FarHighNarrow,0.2,0.15,0.1,0.025118864315095794,1,0.38358810099998664
76,1059,FarHighWide,0.5,0.25,0.03,0.009999999999999995,1,0.45388850700146577
76,1060,Constant,0.1,0.1,0.1,0.01995262314968879,1,0.7078540740003518
76,1061,FarLowNarrow,0.1,0.15,0.2,0.01995262314968879,1,0.7541170000004058
76,1062,ThreeLinesControl,0.0,0.0,0.1,0.01995262314968879,1,0.3923652889989171
76,1063,Constant,0.1,0.1,0.1,0.015848931924611127,0,0.4292731429995911
76,1064,Constant,0.1,0.1,0.1,0.01995262314968879,0,0.5153858839985332
76,1065,FarHighNarrow,0.2,0.15,0.1,0.01995262314968879,0,0.7701648990005197
76,1066,FarHighWide,0.5,0.25,0.03,0.00794328234724281,1,0.389802810999754
76,1067,Constant,0.1,0.1,0.1,0.025118864315095794,1,0.44399130000056175
76,1068,FarHighNarrow,0.2,0.15,0.1,0.025118864315095794,1,0.4019141379994835
76,1069,FarLowNarrow,0.1,0.15,0.2,0.015848931924611127,1,0.34123142399948847
76,1070,FarLowNarrow,0.1,0.15,0.2,0.012589254117941666,0,0.5071213219998754
76,1071,FarLowWide,0.03,0.25,0.5,0.025118864315095794,1,0.37763750400154095
76,1072,ThreeLinesControl,0.0,0.0,0.1,0.015848931924611127,0,99
76,1073,FarLowWide,0.03,0.25,0.5,0.01995262314968879,0,0.44299970399879385
76,1074,FarLowNarrow,0.1,0.15,0.2,0.015848931924611127,0,0.6088812470006815
76,1075,FarLowNarrow,0.1,0.15,0.2,0.01995262314968879,1,0.318272878001153
76,1076,FarHighNarrow,0.2,0.15,0.1,0.01995262314968879,1,0.37919071100077417
76,1077,Constant,0.1,0.1,0.1,0.01995262314968879,0,0.5452650339993852
76,1078,FarLowNarrow,0.1,0.15,0.2,0.015848931924611127,0,0.43050263700024516
76,1079,FarHighNarrow,0.2,0.15,0.1,0.015848931924611127,1,0.44506757800081687
76,1080,Constant,0.1,0.1,0.1,0.025118864315095794,0,0.5422593289986253
76,1081,FarHighWide,0.5,0.25,0.03,0.0063095734448019285,0,99
76,1082,FarLowNarrow,0.1,0.15,0.2,0.01995262314968879,0,99
76,1083,ThreeLinesControl,0.0,0.0,0.1,0.01995262314968879,0,0.4236544839986891
76,1084,Constant_null,0.1,0.1,0.1,0.015848931924611124,1,0.3814543059997959
76,1085,FarHighWide,0.5,0.25,0.03,0.00794328234724281,0,0.5147016549999535
76,1086,FarHighWide,0.5,0.25,0.03,0.009999999999999995,0,0.41678643499835744
76,1087,FarLowWide,0.03,0.25,0.5,0.025118864315095794,0,99
76,1088,ThreeLinesControl,0.0,0.0,0.1,0.025118864315095794,0,99
76,1089,ThreeLinesControl,0.0,0.0,0.1,0.031622776601683784,1,0.3725381650001509
76,1090,ThreeLinesControl,0.0,0.0,0.1,0.02511886431509579,0,99
76,1091,FarLowWide,0.03,0.25,0.5,0.031622776601683784,1,0.429981551002129
76,1092,ThreeLinesControl,0.0,0.0,0.1,0.031622776601683784,1,0.2739225120021729
76,1093,FarHighNarrow,0.2,0.15,0.1,0.012589254117941666,0,0.719041678999929
76,1094,Constant,0.1,0.1,0.1,0.031622776601683784,1,0.39681774699784
76,1095,FarHighNarrow,0.2,0.15,0.1,0.015848931924611127,1,0.3694414349993167
76,1096,FarHighNarrow,0.2,0.15,0.1,0.012589254117941666,0,99
76,1097,ThreeLinesControl,0.0,0.0,0.1,0.02511886431509579,1,0.4365278469995246
76,1098,FarLowWide,0.03,0.25,0.5,0.02511886431509579,1,0.42669804400065914
76,1099,FarHighNarrow,0.2,0.15,0.1,0.015848931924611127,1,0.3447792609986209
76,1100,FarHighNarrow,0.2,0.15,0.1,0.012589254117941666,0,0.3431106960015313
76,1101,FarLowWide,0.03,0.25,0.5,0.01995262314968879,1,0.47689302200160455
76,1102,FarLowWide,0.03,0.25,0.5,0.015848931924611127,0,0.41144514400002663
76,1103,FarHighWide,0.5,0.25,0.03,0.012589254117941666,0,0.4415719530006754
76,1104,Constant,0.1,0.1,0.1,0.02511886431509579,1,0.3518712040022365
76,1105,FarLowWide,0.03,0.25,0.5,0.01995262314968879,1,0.3911044939995918
76,1106,Constant,0.1,0.1,0.1,0.01995262314968879,1,0.3689332009998907
76,1107,ThreeLinesControl,0.0,0.0,0.1,0.01995262314968879,1,0.45482894799715723
76,1108,FarHighWide,0.5,0.25,0.03,0.015848931924611127,1,0.5255117429987877
76,1109,FarLowWide,0.03,0.25,0.5,0.015848931924611127,0,0.4321417749997636
76,1110,Constant,0.1,0.1,0.1,0.015848931924611127,1,0.4625512489983521
76,1111,ThreeLinesControl,0.0,0.0,0.1,0.015848931924611127,1,0.34668607999992673
76,1112,FarHighNarrow,0.2,0.15,0.1,0.015848931924611127,0,0.34383734700168134
76,1113,FarHighNarrow,0.2,0.15,0.1,0.01995262314968879,1,0.4059272869999404
76,1114,FarLowNarrow_null,0.1,0.15,0.2,0.0063095734448019285,0,0.4117746209994948
76,1115,ThreeLinesControl,0.0,0.0,0.1,0.012589254117941666,0,0.39394836600331473
76,1116,FarHighNarrow,0.2,0.15,0.1,0.015848931924611127,1,0.4082339309970848
76,1117,Constant,0.1,0.1,0.1,0.012589254117941666,0,0.43058256299991626
76,1118,FarHighNarrow,0.2,0.15,0.1,0.012589254117941666,0,0.5646717050003645
76,1119,Constant,0.1,0.1,0.1,0.015848931924611127,1,0.38568075000148383
76,1120,FarLowWide,0.03,0.25,0.5,0.01995262314968879,0,0.6417189169987978
76,1121,FarHighWide,0.5,0.25,0.03,0.012589254117941666,0,0.47156069400080014
76,1122,FarHighNarrow,0.2,0.15,0.1,0.015848931924611127,0,0.2502256939988001
76,1123,Constant,0.1,0.1,0.1,0.012589254117941666,0,0.4165472650020092
76,1124,Constant,0.1,0.1,0.1,0.015848931924611127,1,0.39073535399802495
76,1125,FarHighNarrow,0.2,0.15,0.1,0.01995262314968879,1,0.5780009539994353
76,1126,Constant,0.1,0.1,0.1,0.012589254117941666,0,0.39893302700147615
76,1127,FarHighWide,0.5,0.25,0.03,0.015848931924611127,0,0.5891489419991558
76,1128,FarHighWide,0.5,0.25,0.03,0.01995262314968879,1,0.4012154020019807
76,1129,Constant,0.1,0.1,0.1,0.015848931924611127,0,0.6474670539973886
76,1130,FarLowWide,0.03,0.25,0.5,0.025118864315095794,0,0.4046709770009329
76,1131,FarHighWide,0.5,0.25,0.03,0.015848931924611127,1,0.5945017609992647
76,1132,ThreeLinesControl,0.0,0.0,0.1,0.015848931924611127,0,0.5605165540000598
76,1133,FarLowNarrow_null,0.1,0.15,0.2,0.00794328234724281,1,0.4470509029997629
76,1134,FarHighNarrow_null,0.2,0.15,0.1,0.012589254117941666,1,0.30923080799766467
76,1135,Constant,0.1,0.1,0.1,0.01995262314968879,0,0.2752303140005097
76,1136,Constant_null,0.1,0.1,0.1,0.012589254117941663,1,0.40182306799761136
76,1137,FarHighNarrow,0.2,0.15,0.1,0.015848931924611127,1,0.462609322003118
76,1138,FarHighWide,0.5,0.25,0.03,0.012589254117941666,1,0.5741416170021694
76,1139,FarLowWide,0.03,0.25,0.5,0.031622776601683784,0,0.3988297659998352
76,1140,FarHighNarrow,0.2,0.15,0.1,0.012589254117941666,0,0.46108520699999644
76,1141,ThreeLinesControl,0.0,0.0,0.1,0.01995262314968879,1,0.520066435001354
76,1142,ThreeLinesControl,0.0,0.0,0.1,0.015848931924611127,1,0.6066897550008434
76,1143,FarHighWide,0.5,0.25,0.03,0.009999999999999995,0,0.5563620169996284
76,1144,FarHighNarrow,0.2,0.15,0.1,0.015848931924611127,0,0.6726924409995263
76,1145,FarLowWide,0.03,0.25,0.5,0.03981071705534971,1,0.3265810440025234
76,1146,FarHighNarrow,0.2,0.15,0.1,0.01995262314968879,0,0.4601856730005238
76,1147,FarHighNarrow,0.2,0.15,0.1,0.025118864315095794,1,0.3541499599996314
76,1148,FarHighNarrow,0.2,0.15,0.1,0.01995262314968879,0,99
76,1149,FarHighNarrow,0.2,0.15,0.1,0.025118864315095794,0,0.4134255349999876
76,1150,FarHighWide,0.5,0.25,0.03,0.012589254117941666,1,0.4753269270004239
76,1151,FarHighNarrow,0.2,0.15,0.1,0.031622776601683784,1,0.3537057889989228
76,1152,Constant,0.1,0.1,0.1,0.025118864315095794,1,0.4002573879988631
76,1153,Constant,0.1,0.1,0.1,0.01995262314968879,0,0.46208293000017875
76,1154,Constant,0.1,0.1,0.1,0.025118864315095794,1,0.34699030900083017
76,1155,FarHighNarrow,0.2,0.15,0.1,0.02511886431509579,1,0.6384109639984672
76,1156,Constant,0.1,0.1,0.1,0.01995262314968879,0,0.62865768499978
76,1157,FarHighNarrow,0.2,0.15,0.1,0.01995262314968879,0,0.40734987299947534
76,1158,Constant,0.1,0.1,0.1,0.025118864315095794,1,0.373560717998771
76,1159,FarHighNarrow,0.2,0.15,0.1,0.025118864315095794,0,0.41988356599904364
76,1160,Constant,0.1,0.1,0.1,0.01995262314968879,1,0.4879358010002761
76,1161,FarHighWide,0.5,0.25,0.03,0.009999999999999995,0,0.502238691002276
76,1162,FarHighNarrow,0.2,0.15,0.1,0.031622776601683784,1,0.3321720300009474
76,1163,FarHighNarrow,0.2,0.15,0.1,0.02511886431509579,1,0.42643625300115673
76,1164,ThreeLinesControl,0.0,0.0,0.1,0.012589254117941666,0,99
76,1165,ThreeLinesControl,0.0,0.0,0.1,0.015848931924611127,0,0.4389564209996024
76,1166,ThreeLinesControl,0.0,0.0,0.1,0.01995262314968879,0,0.42768795599840814
76,1167,ThreeLinesControl,0.0,0.0,0.1,0.025118864315095794,1,0.3473333419970004
76,1168,FarHighWide,0.5,0.25,0.03,0.012589254117941666,0,0.44014222500118194
76,1169,ThreeLinesControl_null,0.0,0.0,0.1,0.03981071705534971,1,0.40655578400037484
76,1170,ThreeLinesControl,0.0,0.0,0.1,0.01995262314968879,1,0.6524617070026579
76,1171,ThreeLinesControl,0.0,0.0,0.1,0.015848931924611127,0,0.5266748360008933
76,1172,ThreeLinesControl_null,0.0,0.0,0.1,0.031622776601683784,1,0.372655440998642
76,1173,FarHighNarrow,0.2,0.15,0.1,0.01995262314968879,1,0.41107281199947465
76,1174,FarHighNarrow,0.2,0.15,0.1,0.015848931924611127,1,0.3499830809996638
76,1175,FarHighNarrow,0.2,0.15,0.1,0.012589254117941666,0,0.4121484290008084
76,1176,FarHighNarrow,0.2,0.15,0.1,0.015848931924611127,0,99
76,1177,ThreeLinesControl,0.0,0.0,0.1,0.01995262314968879,1,0.4866672419993847
76,1178,ThreeLinesControl,0.0,0.0,0.1,0.015848931924611127,0,0.4605202480015578
76,1179,ThreeLinesControl,0.0,0.0,0.1,0.01995262314968879,1,0.6349071520016878
76,1180,ThreeLinesControl_null,0.0,0.0,0.1,0.02511886431509579,1,0.5288817779983219
76,1181,FarHighNarrow,0.2,0.15,0.1,0.01995262314968879,1,0.3751469230010116
76,1182,FarHighNarrow,0.2,0.15,0.1,0.015848931924611127,0,0.41336979499828885
76,1183,ThreeLinesControl,0.0,0.0,0.1,0.015848931924611127,0,99
76,1184,ThreeLinesControl,0.0,0.0,0.1,0.01995262314968879,0,0.38686473699999624
76,1185,ThreeLinesControl,0.0,0.0,0.1,0.025118864315095794,1,0.3118376870006614
76,1186,ThreeLinesControl,0.0,0.0,0.1,0.01995262314968879,1,0.6697913579992019
76,1187,ThreeLinesControl_null,0.0,0.0,0.1,0.01995262314968879,1,0.5213392289988406
76,1188,ThreeLinesControl_null,0.0,0.0,0.1,0.015848931924611127,1,0.4231602389991167
76,1189,ThreeLinesControl_null,0.0,0.0,0.1,0.012589254117941666,1,0.4204615669987106
76,1190,ThreeLinesControl_null,0.0,0.0,0.1,0.009999999999999995,1,0.3765152029991441
76,1191,ThreeLinesControl_null,0.0,0.0,0.1,0.00794328234724281,1,0.4457953749988519
76,1192,Constant_null,0.1,0.1,0.1,0.009999999999999992,1,0.31550613199942745
76,1193,Constant_null,0.1,0.1,0.1,0.007943282347242809,1,0.3129644979999284
76,1194,Constant_null,0.1,0.1,0.1,0.006309573444801927,1,0.2953128580011253
76,1195,ThreeLinesControl_null,0.0,0.0,0.1,0.0063095734448019285,1,0.4291375210013939
76,1196,ThreeLinesControl_null,0.0,0.0,0.1,0.005011872336272719,1,0.28248379900105647
76,1197,ThreeLinesControl_null,0.0,0.0,0.1,0.00398107170553497,1,0.24855162899984862
76,1198,Constant_null,0.1,0.1,0.1,0.005011872336272718,1,0.5026643550008885
76,1199,ThreeLinesControl_null,0.0,0.0,0.1,0.0031622776601683772,1,0.27786388700042153
