Participant_Number,Trial_Number,Condition,FCfar,FCmed,FCclose,Target_Contrast,Correct_Response,Reaction_Time
57,0,FarLowWide,0.03,0.25,0.5,0.1,1,0.5000244640000346
57,1,FarLowWide,0.03,0.25,0.5,0.07943282347242815,1,0.290476167999941
57,2,FarLowWide_null,0.03,0.25,0.5,0.1,1,0.4693290100001377
57,3,FarHighNarrow,0.2,0.15,0.1,0.1,1,0.37982193800007735
57,4,FarHighNarrow,0.2,0.15,0.1,0.07943282347242815,1,0.4356181549999292
57,5,Constant,0.1,0.1,0.1,0.1,1,0.4610678620001636
57,6,FarLowNarrow,0.1,0.15,0.2,0.1,1,0.4457437190001201
57,7,FarLowNarrow,0.1,0.15,0.2,0.07943282347242815,1,0.43946601699985877
57,8,FarHighWide_null,0.5,0.25,0.03,0.1,1,0.39338896599997497
57,9,FarLowNarrow,0.1,0.15,0.2,0.06309573444801932,1,0.6998463930001435
57,10,Constant,0.1,0.1,0.1,0.07943282347242815,1,0.42986801999995805
57,11,FarHighWide,0.5,0.25,0.03,0.1,1,0.40819980300011593
57,12,FarHighNarrow,0.2,0.15,0.1,0.06309573444801932,1,0.4181985249999798
57,13,FarLowWide,0.03,0.25,0.5,0.06309573444801932,1,0.3877994460001446
57,14,Constant,0.1,0.1,0.1,0.06309573444801932,1,0.25567324200005714
57,15,FarHighWide,0.5,0.25,0.03,0.07943282347242815,1,0.2565436159998171
57,16,FarLowWide,0.03,0.25,0.5,0.05011872336272722,1,0.28344038499994895
57,17,FarLowWide,0.03,0.25,0.5,0.03981071705534971,1,0.2857295310000154
57,18,FarLowNarrow,0.1,0.15,0.2,0.05011872336272722,1,0.3157472450000114
57,19,FarHighNarrow,0.2,0.15,0.1,0.05011872336272722,1,0.34239569400006076
57,20,FarLowWide,0.03,0.25,0.5,0.031622776601683784,1,0.4073677520000274
57,21,FarHighWide,0.5,0.25,0.03,0.06309573444801932,1,0.5034135690000312
57,22,FarLowWide,0.03,0.25,0.5,0.02511886431509579,1,0.45757921600011287
57,23,FarHighNarrow,0.2,0.15,0.1,0.03981071705534971,1,0.43345138599988786
57,24,FarHighWide,0.5,0.25,0.03,0.05011872336272722,1,0.4439004880000539
57,25,FarHighNarrow,0.2,0.15,0.1,0.031622776601683784,1,0.4859973780000928
57,26,FarLowWide,0.03,0.25,0.5,0.01995262314968879,1,0.4251153099999101
57,27,FarLowNarrow,0.1,0.15,0.2,0.03981071705534971,1,0.3939233300000069
57,28,FarHighNarrow,0.2,0.15,0.1,0.02511886431509579,1,0.3714456469999732
57,29,FarLowWide,0.03,0.25,0.5,0.015848931924611127,1,0.5917166470001121
57,30,FarHighWide,0.5,0.25,0.03,0.03981071705534971,1,0.6419253669998852
57,31,Constant,0.1,0.1,0.1,0.05011872336272722,0,99
57,32,FarLowNarrow,0.1,0.15,0.2,0.031622776601683784,1,0.308134470999903
57,33,Constant,0.1,0.1,0.1,0.06309573444801932,1,0.5102931520000311
57,34,FarHighNarrow_null,0.2,0.15,0.1,0.1,1,0.4659881600000517
57,35,FarHighWide,0.5,0.25,0.03,0.031622776601683784,1,0.3598086770000464
57,36,FarHighNarrow,0.2,0.15,0.1,0.01995262314968879,1,0.4253206250000403
57,37,FarLowNarrow,0.1,0.15,0.2,0.02511886431509579,1,0.523767929999849
57,38,FarLowWide,0.03,0.25,0.5,0.012589254117941666,0,0.4833129070000268
57,39,FarHighNarrow,0.2,0.15,0.1,0.015848931924611127,1,0.5888022980000187
57,40,FarHighNarrow,0.2,0.15,0.1,0.012589254117941666,0,0.5269576880000386
57,41,FarHighNarrow,0.2,0.15,0.1,0.015848931924611127,0,0.4721418609999546
57,42,FarHighNarrow,0.2,0.15,0.1,0.01995262314968879,0,0.4894969700001184
57,43,FarLowNarrow,0.1,0.15,0.2,0.01995262314968879,0,0.37972357600006035
57,44,FarLowNarrow_null,0.1,0.15,0.2,0.1,1,0.4056124109999928
57,45,Constant_null,0.1,0.1,0.1,0.1,1,0.39124824200007424
57,46,FarLowNarrow,0.1,0.15,0.2,0.025118864315095794,0,0.37115421799990145
57,47,FarLowWide_null,0.03,0.25,0.5,0.07943282347242815,0,0.50153466200004
57,48,FarHighNarrow,0.2,0.15,0.1,0.025118864315095794,1,0.5352562559999114
57,49,FarHighWide,0.5,0.25,0.03,0.02511886431509579,1,0.48723312499987514
57,50,FarLowNarrow,0.1,0.15,0.2,0.031622776601683784,1,0.5138679980000234
57,51,FarLowWide,0.03,0.25,0.5,0.015848931924611127,0,0.5955568549998134
57,52,FarLowWide,0.03,0.25,0.5,0.01995262314968879,1,0.506704425999942
57,53,Constant,0.1,0.1,0.1,0.05011872336272722,1,0.45308570399993187
57,54,FarHighNarrow,0.2,0.15,0.1,0.01995262314968879,1,0.4629194199999347
57,55,Constant,0.1,0.1,0.1,0.03981071705534971,1,0.4862281549999352
57,56,FarHighNarrow,0.2,0.15,0.1,0.015848931924611127,1,0.3678783079999448
57,57,FarLowWide,0.03,0.25,0.5,0.015848931924611127,1,0.4024286110000048
57,58,FarLowWide,0.03,0.25,0.5,0.012589254117941666,0,0.435369111
57,59,FarLowWide,0.03,0.25,0.5,0.015848931924611127,1,0.5331279320000704
57,60,FarHighWide,0.5,0.25,0.03,0.01995262314968879,1,0.5434874510001464
57,61,FarHighWide,0.5,0.25,0.03,0.015848931924611127,1,0.4806746029998976
57,62,Constant,0.1,0.1,0.1,0.031622776601683784,1,0.4988940010000533
57,63,FarLowNarrow,0.1,0.15,0.2,0.02511886431509579,1,0.533375703000047
57,64,FarHighWide,0.5,0.25,0.03,0.012589254117941666,0,0.5206148419999863
57,65,FarHighWide,0.5,0.25,0.03,0.015848931924611127,1,0.8982896439999877
57,66,FarLowWide,0.03,0.25,0.5,0.012589254117941666,1,0.674637377999943
57,67,FarHighNarrow,0.2,0.15,0.1,0.012589254117941666,0,0.34779928500006463
57,68,FarLowWide,0.03,0.25,0.5,0.009999999999999995,1,0.5017328809999526
57,69,Constant,0.1,0.1,0.1,0.02511886431509579,1,0.6771412840000721
57,70,FarLowNarrow,0.1,0.15,0.2,0.01995262314968879,1,0.9913033420000374
57,71,FarLowNarrow,0.1,0.15,0.2,0.015848931924611127,0,0.6893875619998653
57,72,FarHighWide,0.5,0.25,0.03,0.012589254117941666,0,0.9044826700001067
57,73,FarHighNarrow,0.2,0.15,0.1,0.015848931924611127,1,0.6188274330002059
57,74,FarHighNarrow,0.2,0.15,0.1,0.012589254117941666,0,0.5171303419999731
57,75,FarHighWide,0.5,0.25,0.03,0.015848931924611127,0,0.5254068050001024
57,76,FarHighWide,0.5,0.25,0.03,0.01995262314968879,1,0.49610682499996983
57,77,FarHighNarrow,0.2,0.15,0.1,0.015848931924611127,0,0.785963731000038
57,78,FarHighWide,0.5,0.25,0.03,0.015848931924611127,0,0.6998625189999075
57,79,Constant,0.1,0.1,0.1,0.01995262314968879,1,0.5252695209999274
57,80,FarLowNarrow,0.1,0.15,0.2,0.01995262314968879,1,0.591845209999974
57,81,FarLowNarrow,0.1,0.15,0.2,0.015848931924611127,1,0.5951523530000031
57,82,FarHighWide,0.5,0.25,0.03,0.01995262314968879,1,0.5159065979999014
57,83,FarLowNarrow,0.1,0.15,0.2,0.012589254117941666,1,0.6469047109999337
57,84,Constant,0.1,0.1,0.1,0.015848931924611127,1,0.4463172690000192
57,85,FarHighNarrow,0.2,0.15,0.1,0.01995262314968879,1,0.45678032099999655
57,86,FarHighNarrow,0.2,0.15,0.1,0.015848931924611127,1,0.4881149479999749
57,87,FarLowNarrow,0.1,0.15,0.2,0.009999999999999995,1,0.4261058019999382
57,88,FarLowWide,0.03,0.25,0.5,0.00794328234724281,1,0.387509313999999
57,89,FarLowWide,0.03,0.25,0.5,0.0063095734448019285,0,0.4266059290000612
57,90,FarHighNarrow,0.2,0.15,0.1,0.012589254117941666,1,0.45331450399999085
57,91,FarLowWide,0.03,0.25,0.5,0.00794328234724281,0,0.39090157200007525
57,92,FarHighNarrow,0.2,0.15,0.1,0.009999999999999995,0,0.384148802000027
57,93,Constant,0.1,0.1,0.1,0.012589254117941666,1,0.40274413799988906
57,94,FarHighWide_null,0.5,0.25,0.03,0.07943282347242815,1,0.4121565110001484
57,95,FarLowNarrow,0.1,0.15,0.2,0.00794328234724281,0,0.5185471120000784
57,96,Constant,0.1,0.1,0.1,0.009999999999999995,1,0.8081937219999418
57,97,FarHighWide_null,0.5,0.25,0.03,0.06309573444801932,1,0.4507951599998705
57,98,FarHighWide,0.5,0.25,0.03,0.015848931924611127,0,0.38908886199988046
57,99,FarLowWide,0.03,0.25,0.5,0.009999999999999995,0,0.4476020420001987
57,100,FarHighWide,0.5,0.25,0.03,0.01995262314968879,1,0.5849586269998781
57,101,FarLowNarrow,0.1,0.15,0.2,0.009999999999999995,0,0.6023689189999004
57,102,FarHighNarrow,0.2,0.15,0.1,0.012589254117941666,1,0.6690751230000842
57,103,FarLowWide,0.03,0.25,0.5,0.012589254117941666,0,0.8919629770000483
57,104,Constant,0.1,0.1,0.1,0.00794328234724281,1,0.9500628319999578
57,105,FarLowNarrow,0.1,0.15,0.2,0.012589254117941666,0,0.383429519999936
57,106,Constant,0.1,0.1,0.1,0.0063095734448019285,0,0.519705550000026
57,107,FarHighNarrow,0.2,0.15,0.1,0.009999999999999995,0,0.5048089739998431
57,108,FarHighWide,0.5,0.25,0.03,0.015848931924611127,1,0.46682183300004
57,109,FarLowWide,0.03,0.25,0.5,0.015848931924611127,1,0.477127259000099
57,110,FarLowWide,0.03,0.25,0.5,0.012589254117941666,0,0.3188024190001215
57,111,FarLowWide,0.03,0.25,0.5,0.015848931924611127,1,0.45759999299980336
57,112,FarLowWide,0.03,0.25,0.5,0.012589254117941666,0,0.44301328500000636
57,113,Constant,0.1,0.1,0.1,0.00794328234724281,0,0.39731699399999343
57,114,FarHighWide,0.5,0.25,0.03,0.012589254117941666,0,0.39082040500011317
57,115,Constant,0.1,0.1,0.1,0.009999999999999995,0,0.3847947000001568
57,116,FarHighWide,0.5,0.25,0.03,0.015848931924611127,1,0.4675389980000091
57,117,FarLowNarrow,0.1,0.15,0.2,0.015848931924611127,1,0.5234062370000174
57,118,FarHighWide,0.5,0.25,0.03,0.012589254117941666,0,0.35691134300009253
57,119,Constant,0.1,0.1,0.1,0.012589254117941666,0,0.4076010020000922
57,120,FarHighWide,0.5,0.25,0.03,0.015848931924611127,0,0.5267856499999652
57,121,FarLowNarrow,0.1,0.15,0.2,0.012589254117941666,1,0.8884083909999845
57,122,Constant,0.1,0.1,0.1,0.015848931924611127,1,0.45842279699991195
57,123,FarHighNarrow_null,0.2,0.15,0.1,0.07943282347242815,1,0.3856411990000197
57,124,FarLowNarrow,0.1,0.15,0.2,0.009999999999999995,1,0.7158381700000973
57,125,FarLowNarrow,0.1,0.15,0.2,0.00794328234724281,0,1.1981285570000182
57,126,FarHighWide,0.5,0.25,0.03,0.01995262314968879,1,0.4559459600000082
57,127,FarLowWide,0.03,0.25,0.5,0.015848931924611127,1,0.7942230989999643
57,128,Constant,0.1,0.1,0.1,0.012589254117941666,0,0.37198800800001663
57,129,FarLowWide_null,0.03,0.25,0.5,0.1,1,0.5659993860001578
57,130,FarLowNarrow,0.1,0.15,0.2,0.009999999999999995,1,0.599852157999976
57,131,FarHighNarrow,0.2,0.15,0.1,0.012589254117941666,0,0.3455032959998334
57,132,FarHighWide,0.5,0.25,0.03,0.015848931924611127,1,0.3878759980000268
57,133,FarLowWide,0.03,0.25,0.5,0.012589254117941666,0,0.48611038100011683
57,134,FarLowWide,0.03,0.25,0.5,0.015848931924611127,0,0.3928135249998377
57,135,FarLowNarrow,0.1,0.15,0.2,0.00794328234724281,0,0.8879574089999096
57,136,FarLowWide,0.03,0.25,0.5,0.01995262314968879,0,0.6586947529999634
57,137,FarHighWide_null,0.5,0.25,0.03,0.05011872336272722,1,0.7135039639999832
57,138,FarHighNarrow,0.2,0.15,0.1,0.015848931924611127,0,0.7635195740001564
57,139,Constant,0.1,0.1,0.1,0.015848931924611127,1,0.4617656170000828
57,140,FarHighNarrow,0.2,0.15,0.1,0.01995262314968879,1,0.46913631300003544
57,141,Constant,0.1,0.1,0.1,0.012589254117941666,0,0.35897498400004224
57,142,Constant_null,0.1,0.1,0.1,0.07943282347242815,1,0.9607596980001745
57,143,Constant,0.1,0.1,0.1,0.015848931924611127,0,0.738707340000019
57,144,FarHighNarrow,0.2,0.15,0.1,0.015848931924611127,0,0.4614879639998435
57,145,Constant,0.1,0.1,0.1,0.01995262314968879,0,0.6633256509999228
57,146,FarHighNarrow_null,0.2,0.15,0.1,0.06309573444801932,1,0.6568354809999164
57,147,FarLowWide,0.03,0.25,0.5,0.025118864315095794,1,0.5230543289999332
57,148,FarLowWide,0.03,0.25,0.5,0.01995262314968879,1,0.7334916980000799
57,149,FarHighWide,0.5,0.25,0.03,0.012589254117941666,1,0.6864995840001029
57,150,FarHighNarrow,0.2,0.15,0.1,0.01995262314968879,1,0.5934290200000305
57,151,Constant,0.1,0.1,0.1,0.025118864315095794,1,0.5309208810001564
57,152,FarLowNarrow,0.1,0.15,0.2,0.009999999999999995,1,0.5630665409998983
57,153,FarLowWide_null,0.03,0.25,0.5,0.07943282347242815,1,0.5571307729999262
57,154,Constant,0.1,0.1,0.1,0.01995262314968879,1,0.5906769410000834
57,155,Constant,0.1,0.1,0.1,0.015848931924611127,1,0.7977553149999039
57,156,FarLowNarrow,0.1,0.15,0.2,0.00794328234724281,0,0.6163323750001837
57,157,FarLowWide_null,0.03,0.25,0.5,0.06309573444801932,1,0.8319682009998814
57,158,FarLowWide,0.03,0.25,0.5,0.015848931924611127,1,0.6093069080000078
57,159,FarHighNarrow,0.2,0.15,0.1,0.015848931924611127,1,0.5716695759999766
57,160,FarLowWide,0.03,0.25,0.5,0.012589254117941666,0,0.44602760399993713
57,161,FarLowWide,0.03,0.25,0.5,0.015848931924611127,1,0.5354670530000476
57,162,Constant_null,0.1,0.1,0.1,0.06309573444801932,1,0.6579801380000845
57,163,FarLowWide,0.03,0.25,0.5,0.012589254117941666,0,0.4922143789999609
57,164,FarHighWide,0.5,0.25,0.03,0.009999999999999995,1,0.5579768570000851
57,165,FarHighNarrow,0.2,0.15,0.1,0.012589254117941666,0,0.5197120150000956
57,166,FarHighNarrow,0.2,0.15,0.1,0.015848931924611127,1,0.7217600240001047
57,167,FarLowWide,0.03,0.25,0.5,0.015848931924611127,0,99
57,168,FarLowWide,0.03,0.25,0.5,0.01995262314968879,1,0.6076817529999516
57,169,FarHighNarrow,0.2,0.15,0.1,0.012589254117941666,1,0.6217198469998948
57,170,Constant,0.1,0.1,0.1,0.012589254117941666,0,0.6872080170001027
57,171,FarLowWide,0.03,0.25,0.5,0.015848931924611127,1,0.9373748870000327
57,172,FarLowNarrow,0.1,0.15,0.2,0.009999999999999995,0,1.280796347999967
57,173,FarHighNarrow,0.2,0.15,0.1,0.009999999999999995,0,0.5712870999998358
57,174,FarHighWide,0.5,0.25,0.03,0.00794328234724281,0,0.7090986989999237
57,175,FarLowNarrow,0.1,0.15,0.2,0.012589254117941666,0,0.7331566979999025
57,176,FarHighNarrow,0.2,0.15,0.1,0.012589254117941666,0,0.7827600289999737
57,177,FarLowWide,0.03,0.25,0.5,0.012589254117941666,0,0.44926070300016363
57,178,FarHighWide,0.5,0.25,0.03,0.009999999999999995,0,0.6668012659999931
57,179,FarHighNarrow,0.2,0.15,0.1,0.015848931924611127,0,0.44537319599999137
57,180,FarHighWide,0.5,0.25,0.03,0.012589254117941666,0,0.5612400630000138
57,181,FarLowNarrow,0.1,0.15,0.2,0.015848931924611127,1,0.5141958620001787
57,182,FarHighWide,0.5,0.25,0.03,0.015848931924611127,1,0.4282988039999509
57,183,Constant,0.1,0.1,0.1,0.015848931924611127,1,0.42926636199990753
57,184,FarHighNarrow,0.2,0.15,0.1,0.01995262314968879,1,0.3925672529999247
57,185,FarLowWide,0.03,0.25,0.5,0.015848931924611127,1,0.25856748199998947
57,186,FarLowWide,0.03,0.25,0.5,0.012589254117941666,0,0.4015199630000552
57,187,FarHighNarrow,0.2,0.15,0.1,0.015848931924611127,1,0.5079199760000392
57,188,FarHighWide_null,0.5,0.25,0.03,0.03981071705534971,1,0.5578987040000811
57,189,FarLowNarrow,0.1,0.15,0.2,0.012589254117941666,0,0.6290775730001315
57,190,FarLowNarrow,0.1,0.15,0.2,0.015848931924611127,1,0.5585782620000828
57,191,FarLowWide,0.03,0.25,0.5,0.015848931924611127,1,0.401001013000041
57,192,FarHighNarrow,0.2,0.15,0.1,0.012589254117941666,0,0.4174604750000981
57,193,Constant,0.1,0.1,0.1,0.012589254117941666,1,0.35482920100002957
57,194,FarLowNarrow,0.1,0.15,0.2,0.012589254117941666,1,0.49344737800015537
57,195,Constant,0.1,0.1,0.1,0.009999999999999995,0,0.510986494000008
57,196,FarLowNarrow,0.1,0.15,0.2,0.009999999999999995,0,0.4329690389999996
57,197,FarLowNarrow,0.1,0.15,0.2,0.012589254117941666,1,0.45865071999992324
57,198,FarLowWide_null,0.03,0.25,0.5,0.05011872336272722,1,0.5913420389999828
57,199,FarLowWide,0.03,0.25,0.5,0.012589254117941666,0,0.655362888000127
57,200,FarHighWide,0.5,0.25,0.03,0.012589254117941666,0,0.3269404590000704
57,201,Constant,0.1,0.1,0.1,0.012589254117941666,0,0.25508279699988634
57,202,FarLowNarrow,0.1,0.15,0.2,0.009999999999999995,0,0.3448715629999697
57,203,FarLowNarrow,0.1,0.15,0.2,0.012589254117941666,0,0.32291776900001423
57,204,FarHighNarrow,0.2,0.15,0.1,0.015848931924611127,1,0.3857170839999071
57,205,FarHighWide,0.5,0.25,0.03,0.015848931924611127,1,0.37186595100001796
57,206,Constant_null,0.1,0.1,0.1,0.05011872336272722,1,0.2779924110000138
57,207,Constant,0.1,0.1,0.1,0.015848931924611127,1,0.4373984989999826
57,208,FarLowWide,0.03,0.25,0.5,0.015848931924611127,1,0.3987697919999391
57,209,Constant_null,0.1,0.1,0.1,0.03981071705534971,1,0.4247609960000318
57,210,Constant,0.1,0.1,0.1,0.012589254117941666,1,0.48210867800003143
57,211,FarLowNarrow,0.1,0.15,0.2,0.015848931924611127,0,0.3652484619999541
57,212,FarLowWide,0.03,0.25,0.5,0.012589254117941666,1,0.6066531259998555
57,213,FarLowNarrow,0.1,0.15,0.2,0.01995262314968879,1,0.4329960000000028
57,214,FarHighNarrow,0.2,0.15,0.1,0.012589254117941666,1,0.6180805530000271
57,215,FarLowNarrow,0.1,0.15,0.2,0.015848931924611127,1,0.4289754870001161
57,216,FarHighWide_null,0.5,0.25,0.03,0.031622776601683784,1,0.4166771410000365
57,217,FarLowWide,0.03,0.25,0.5,0.009999999999999995,0,0.377600818000019
57,218,FarLowWide,0.03,0.25,0.5,0.012589254117941666,0,0.5297142570000233
57,219,FarHighWide,0.5,0.25,0.03,0.012589254117941666,1,0.5235740160001114
57,220,FarLowWide,0.03,0.25,0.5,0.015848931924611127,1,0.4298666409999896
57,221,FarLowWide,0.03,0.25,0.5,0.012589254117941666,0,0.4614459849999548
57,222,FarHighNarrow,0.2,0.15,0.1,0.009999999999999995,0,0.40724680800008173
57,223,FarHighNarrow,0.2,0.15,0.1,0.012589254117941666,0,0.36865224899997884
57,224,FarLowNarrow,0.1,0.15,0.2,0.012589254117941666,0,0.37577722299988636
57,225,Constant,0.1,0.1,0.1,0.009999999999999995,0,0.3302705440000864
57,226,FarLowWide,0.03,0.25,0.5,0.015848931924611127,1,0.41264589100001103
57,227,FarLowWide,0.03,0.25,0.5,0.012589254117941666,0,0.4777126269998462
57,228,FarHighNarrow,0.2,0.15,0.1,0.015848931924611127,1,0.42412590699996144
57,229,FarHighWide,0.5,0.25,0.03,0.009999999999999995,0,0.4981386790000215
57,230,FarHighWide,0.5,0.25,0.03,0.012589254117941666,0,0.3957080440000027
57,231,Constant,0.1,0.1,0.1,0.012589254117941666,0,0.5253988509998635
57,232,FarLowNarrow_null,0.1,0.15,0.2,0.07943282347242815,1,0.8080293380000967
57,233,Constant,0.1,0.1,0.1,0.015848931924611127,1,0.5219441449999067
57,234,FarHighWide,0.5,0.25,0.03,0.015848931924611127,1,0.5326549710000563
57,235,Constant,0.1,0.1,0.1,0.012589254117941666,1,0.5158719419998761
57,236,FarLowNarrow,0.1,0.15,0.2,0.015848931924611127,0,0.5502366109999457
57,237,FarHighNarrow,0.2,0.15,0.1,0.012589254117941666,1,0.5527605449999555
57,238,FarHighNarrow,0.2,0.15,0.1,0.009999999999999995,0,0.39134772800002793
57,239,FarHighNarrow,0.2,0.15,0.1,0.012589254117941666,0,0.7857328980001057
57,240,FarLowNarrow,0.1,0.15,0.2,0.01995262314968879,1,0.7079790689999754
57,241,FarLowWide,0.03,0.25,0.5,0.015848931924611127,1,0.5466129530000217
57,242,FarLowNarrow,0.1,0.15,0.2,0.015848931924611127,0,0.38826458099993033
57,243,FarLowNarrow,0.1,0.15,0.2,0.01995262314968879,0,0.7026278569999249
57,244,Constant,0.1,0.1,0.1,0.009999999999999995,0,0.45608316799985005
57,245,FarLowNarrow,0.1,0.15,0.2,0.025118864315095794,1,0.714296848999993
57,246,FarLowNarrow,0.1,0.15,0.2,0.01995262314968879,1,0.460813872000017
57,247,FarHighWide,0.5,0.25,0.03,0.012589254117941666,0,0.6061982820001504
57,248,FarLowNarrow,0.1,0.15,0.2,0.015848931924611127,0,0.43276335799987464
57,249,FarLowNarrow,0.1,0.15,0.2,0.01995262314968879,0,0.4268669760001558
57,250,Constant,0.1,0.1,0.1,0.012589254117941666,0,0.5332172800001445
57,251,Constant,0.1,0.1,0.1,0.015848931924611127,1,0.49501325300002463
57,252,Constant_null,0.1,0.1,0.1,0.031622776601683784,1,0.46594777199993587
57,253,Constant,0.1,0.1,0.1,0.012589254117941666,0,0.9211393709999811
57,254,FarHighNarrow,0.2,0.15,0.1,0.015848931924611127,0,0.6983490099999017
57,255,FarHighWide,0.5,0.25,0.03,0.015848931924611127,0,0.8259012089999942
57,256,FarLowNarrow,0.1,0.15,0.2,0.025118864315095794,1,0.9640570760000173
57,257,FarHighWide,0.5,0.25,0.03,0.01995262314968879,1,0.8056241530000534
57,258,Constant,0.1,0.1,0.1,0.015848931924611127,1,1.0456775619998098
57,259,Constant_null,0.1,0.1,0.1,0.02511886431509579,1,0.6713013769999634
57,260,Constant,0.1,0.1,0.1,0.012589254117941666,0,0.47328537899988987
57,261,FarLowWide_null,0.03,0.25,0.5,0.03981071705534971,1,0.6274195209998652
57,262,FarLowWide,0.03,0.25,0.5,0.012589254117941666,1,0.6451348230000349
57,263,Constant,0.1,0.1,0.1,0.015848931924611127,1,0.5432268229999409
57,264,Constant,0.1,0.1,0.1,0.012589254117941666,0,0.48085395499992956
57,265,FarLowNarrow_null,0.1,0.15,0.2,0.06309573444801932,1,0.6355067780000354
57,266,FarLowWide,0.03,0.25,0.5,0.009999999999999995,0,0.9331223690001025
57,267,FarHighWide,0.5,0.25,0.03,0.015848931924611127,0,99
57,268,FarLowNarrow,0.1,0.15,0.2,0.01995262314968879,0,0.3935882539999511
57,269,FarHighWide,0.5,0.25,0.03,0.01995262314968879,0,0.5163902849999431
57,270,FarHighNarrow,0.2,0.15,0.1,0.01995262314968879,0,0.49100246100010736
57,271,Constant,0.1,0.1,0.1,0.015848931924611127,0,0.5811201660001188
57,272,FarLowNarrow,0.1,0.15,0.2,0.025118864315095794,1,0.9837056540000049
57,273,FarLowNarrow,0.1,0.15,0.2,0.01995262314968879,0,0.7827760679999756
57,274,FarHighNarrow_null,0.2,0.15,0.1,0.05011872336272722,1,0.6568077850001828
57,275,FarHighWide,0.5,0.25,0.03,0.025118864315095794,1,1.087803636999979
57,276,FarLowWide,0.03,0.25,0.5,0.012589254117941666,0,0.937775499999816
57,277,FarLowNarrow,0.1,0.15,0.2,0.025118864315095794,1,0.5315362830001504
57,278,FarHighNarrow,0.2,0.15,0.1,0.025118864315095794,1,0.47791754199988645
57,279,FarHighWide,0.5,0.25,0.03,0.01995262314968879,1,0.44744198800003687
57,280,FarHighNarrow,0.2,0.15,0.1,0.01995262314968879,1,0.40163288899998406
57,281,FarHighWide_null,0.5,0.25,0.03,0.02511886431509579,1,0.428022349999992
57,282,FarLowNarrow,0.1,0.15,0.2,0.01995262314968879,1,0.373438028999999
57,283,FarLowNarrow,0.1,0.15,0.2,0.015848931924611127,1,0.7682878510001956
57,284,FarHighNarrow,0.2,0.15,0.1,0.015848931924611127,1,0.4581949779999377
57,285,FarLowWide,0.03,0.25,0.5,0.015848931924611127,1,0.7004158400000051
57,286,Constant,0.1,0.1,0.1,0.01995262314968879,0,0.8944784899999831
57,287,FarLowNarrow,0.1,0.15,0.2,0.012589254117941666,0,0.8300380339999265
57,288,FarLowNarrow,0.1,0.15,0.2,0.015848931924611127,1,0.9195337749999908
57,289,FarHighNarrow,0.2,0.15,0.1,0.012589254117941666,1,0.5058531580000363
57,290,FarHighWide_null,0.5,0.25,0.03,0.01995262314968879,1,0.6170098279999365
57,291,FarLowWide,0.03,0.25,0.5,0.012589254117941666,1,0.7072212939999645
57,292,FarHighNarrow,0.2,0.15,0.1,0.009999999999999995,0,0.7491126469999472
57,293,FarLowNarrow,0.1,0.15,0.2,0.012589254117941666,0,0.84483560700005
57,294,FarLowNarrow,0.1,0.15,0.2,0.015848931924611127,1,0.8942715319999479
57,295,FarHighWide,0.5,0.25,0.03,0.015848931924611127,1,0.7125604269999712
57,296,FarLowWide,0.03,0.25,0.5,0.009999999999999995,0,0.6667327570000907
57,297,FarHighWide,0.5,0.25,0.03,0.012589254117941666,0,0.7560002960001384
57,298,FarLowNarrow,0.1,0.15,0.2,0.012589254117941666,0,0.8786125909998646
57,299,FarLowWide,0.03,0.25,0.5,0.012589254117941666,1,0.7281163150000793
57,300,Constant,0.1,0.1,0.1,0.025118864315095794,0,0.4047895809999318
57,301,Constant_null,0.1,0.1,0.1,0.01995262314968879,1,0.45920730400007415
57,302,FarLowNarrow,0.1,0.15,0.2,0.015848931924611127,0,0.29271336400006476
57,303,FarLowNarrow,0.1,0.15,0.2,0.01995262314968879,1,0.6150869040000089
57,304,FarHighNarrow,0.2,0.15,0.1,0.012589254117941666,1,0.6379777530000865
57,305,FarLowNarrow,0.1,0.15,0.2,0.015848931924611127,1,0.6724486049999996
57,306,FarLowWide_null,0.03,0.25,0.5,0.031622776601683784,1,0.4819229429999723
57,307,FarHighNarrow,0.2,0.15,0.1,0.009999999999999995,0,0.4902627120000034
57,308,FarLowNarrow,0.1,0.15,0.2,0.012589254117941666,0,0.428875527999935
57,309,Constant,0.1,0.1,0.1,0.031622776601683784,1,0.3981115310000405
57,310,FarHighWide,0.5,0.25,0.03,0.015848931924611127,1,0.3765180620000592
57,311,FarHighNarrow,0.2,0.15,0.1,0.012589254117941666,0,0.30643155699999625
57,312,FarHighNarrow,0.2,0.15,0.1,0.015848931924611127,1,0.5330018180000025
57,313,FarLowWide,0.03,0.25,0.5,0.009999999999999995,0,0.4625435710001966
57,314,Constant,0.1,0.1,0.1,0.02511886431509579,1,0.5683366279999973
57,315,FarLowWide,0.03,0.25,0.5,0.012589254117941666,0,0.6020562819999213
57,316,FarHighWide,0.5,0.25,0.03,0.012589254117941666,0,0.5079317459999402
57,317,FarHighWide,0.5,0.25,0.03,0.015848931924611127,1,0.5352982070000962
57,318,FarHighNarrow,0.2,0.15,0.1,0.012589254117941666,1,0.46122717200000807
57,319,FarLowWide,0.03,0.25,0.5,0.015848931924611127,1,0.5669889280000007
57,320,FarLowNarrow,0.1,0.15,0.2,0.015848931924611127,1,0.5055857439999727
57,321,FarLowNarrow,0.1,0.15,0.2,0.012589254117941666,0,0.5287533010000516
57,322,FarHighWide,0.5,0.25,0.03,0.012589254117941666,0,0.4344634180001776
57,323,FarHighNarrow,0.2,0.15,0.1,0.009999999999999995,0,0.7170694850001382
57,324,FarLowWide,0.03,0.25,0.5,0.012589254117941666,0,0.4213859369999682
57,325,FarLowNarrow_null,0.1,0.15,0.2,0.05011872336272722,1,0.5036464669999532
57,326,Constant,0.1,0.1,0.1,0.01995262314968879,0,0.7610818729999664
57,327,Constant,0.1,0.1,0.1,0.025118864315095794,1,0.9626813549998587
57,328,FarLowWide,0.03,0.25,0.5,0.015848931924611127,1,0.5968077400000311
57,329,FarHighNarrow,0.2,0.15,0.1,0.012589254117941666,0,0.5834343369999715
57,330,FarLowWide,0.03,0.25,0.5,0.012589254117941666,1,1.0342692000001534
57,331,FarHighWide,0.5,0.25,0.03,0.015848931924611127,1,1.0115536910000174
57,332,Constant,0.1,0.1,0.1,0.01995262314968879,1,0.9907415850000234
57,333,Constant,0.1,0.1,0.1,0.015848931924611127,1,0.6571526760001234
57,334,FarLowWide,0.03,0.25,0.5,0.009999999999999995,1,0.5383332730000348
57,335,FarLowNarrow_null,0.1,0.15,0.2,0.03981071705534971,0,0.904948455000067
57,336,FarLowNarrow,0.1,0.15,0.2,0.015848931924611127,1,0.45101324500001283
57,337,FarLowWide,0.03,0.25,0.5,0.00794328234724281,0,0.42964742100002695
57,338,Constant,0.1,0.1,0.1,0.012589254117941666,0,0.5560679499999424
57,339,FarLowWide,0.03,0.25,0.5,0.009999999999999995,0,0.9339210570001342
57,340,Constant,0.1,0.1,0.1,0.015848931924611127,0,0.840449056999887
57,341,Constant,0.1,0.1,0.1,0.01995262314968879,0,0.5047809169998345
57,342,FarHighNarrow,0.2,0.15,0.1,0.015848931924611127,1,0.3466694839999036
57,343,Constant,0.1,0.1,0.1,0.025118864315095794,1,0.32535619999998744
57,344,FarHighWide,0.5,0.25,0.03,0.012589254117941666,0,0.4956020299998727
57,345,FarHighNarrow,0.2,0.15,0.1,0.012589254117941666,0,0.5213140030000432
57,346,FarLowNarrow,0.1,0.15,0.2,0.012589254117941666,0,0.5469319749997794
57,347,FarHighNarrow_null,0.2,0.15,0.1,0.03981071705534971,1,0.49484830300002614
57,348,FarHighWide_null,0.5,0.25,0.03,0.015848931924611127,1,0.617223415999888
57,349,FarHighNarrow,0.2,0.15,0.1,0.015848931924611127,0,0.8445186100000228
57,350,Constant,0.1,0.1,0.1,0.01995262314968879,1,0.7476308580000932
57,351,FarLowNarrow_null,0.1,0.15,0.2,0.05011872336272721,1,0.5090633130000697
57,352,FarLowNarrow,0.1,0.15,0.2,0.015848931924611127,1,0.5566445360000216
57,353,FarHighNarrow,0.2,0.15,0.1,0.01995262314968879,0,0.47820535899995775
57,354,FarHighNarrow,0.2,0.15,0.1,0.025118864315095794,1,0.5765314769998895
57,355,FarHighNarrow,0.2,0.15,0.1,0.01995262314968879,1,0.4557630260001133
57,356,FarLowNarrow,0.1,0.15,0.2,0.012589254117941666,0,0.44110244400008014
57,357,FarLowNarrow,0.1,0.15,0.2,0.015848931924611127,0,0.5151101420001396
57,358,FarLowNarrow,0.1,0.15,0.2,0.01995262314968879,1,0.5885034240000095
57,359,Constant,0.1,0.1,0.1,0.015848931924611127,1,0.566576527000052
57,360,FarLowNarrow,0.1,0.15,0.2,0.015848931924611127,1,0.5288573249999899
57,361,FarHighWide,0.5,0.25,0.03,0.015848931924611127,1,0.49881531100004395
57,362,FarLowWide,0.03,0.25,0.5,0.012589254117941666,0,0.5569291330000397
57,363,FarHighWide,0.5,0.25,0.03,0.012589254117941666,0,0.6388460939999732
57,364,FarHighNarrow,0.2,0.15,0.1,0.015848931924611127,1,0.6658268260000568
57,365,FarHighWide,0.5,0.25,0.03,0.015848931924611127,1,0.7008412600000611
57,366,FarHighWide,0.5,0.25,0.03,0.012589254117941666,0,0.4861513399998785
57,367,Constant,0.1,0.1,0.1,0.012589254117941666,0,0.29371663900019485
57,368,FarHighNarrow,0.2,0.15,0.1,0.012589254117941666,1,0.42439560299999357
57,369,FarLowNarrow,0.1,0.15,0.2,0.012589254117941666,1,0.5165439540000989
57,370,Constant,0.1,0.1,0.1,0.015848931924611127,1,0.5059720699998707
57,371,FarLowNarrow,0.1,0.15,0.2,0.009999999999999995,0,0.6835268280001401
57,372,FarLowNarrow,0.1,0.15,0.2,0.012589254117941666,1,0.619146912999895
57,373,FarHighWide,0.5,0.25,0.03,0.015848931924611127,1,0.4855249540000841
57,374,FarLowWide,0.03,0.25,0.5,0.015848931924611127,1,0.5508653119998144
57,375,FarHighWide,0.5,0.25,0.03,0.012589254117941666,0,1.2401769879998028
57,376,FarLowNarrow,0.1,0.15,0.2,0.009999999999999995,0,0.7064522740001848
57,377,FarHighWide,0.5,0.25,0.03,0.015848931924611127,0,0.5401588489999085
57,378,FarHighNarrow,0.2,0.15,0.1,0.009999999999999995,0,0.5187832680001065
57,379,FarLowWide,0.03,0.25,0.5,0.012589254117941666,1,0.5925923199999943
57,380,FarHighWide,0.5,0.25,0.03,0.01995262314968879,0,0.8741090119999626
57,381,FarHighNarrow,0.2,0.15,0.1,0.012589254117941666,0,0.6049171869999554
57,382,FarHighNarrow,0.2,0.15,0.1,0.015848931924611127,1,0.5194138809999913
57,383,FarHighNarrow,0.2,0.15,0.1,0.012589254117941666,0,0.8745241430001442
57,384,FarHighWide,0.5,0.25,0.03,0.025118864315095794,1,0.9055569680001554
57,385,FarLowNarrow,0.1,0.15,0.2,0.012589254117941666,0,0.5873496960000466
57,386,Constant,0.1,0.1,0.1,0.012589254117941666,0,0.8211487519999991
57,387,FarLowWide,0.03,0.25,0.5,0.009999999999999995,0,0.6205462909999824
57,388,Constant,0.1,0.1,0.1,0.015848931924611127,1,0.6142451229998187
57,389,FarLowWide,0.03,0.25,0.5,0.012589254117941666,0,0.4646268879998843
57,390,FarLowWide,0.03,0.25,0.5,0.015848931924611127,1,0.551738966999892
57,391,FarHighWide_null,0.5,0.25,0.03,0.012589254117941666,1,0.6496627270000772
57,392,Constant,0.1,0.1,0.1,0.012589254117941666,1,0.7711671130000468
57,393,FarLowNarrow,0.1,0.15,0.2,0.015848931924611127,0,0.5812338659998204
57,394,FarLowWide,0.03,0.25,0.5,0.012589254117941666,0,0.4308792809999886
57,395,FarHighNarrow,0.2,0.15,0.1,0.015848931924611127,0,0.5136068100000557
57,396,Constant,0.1,0.1,0.1,0.009999999999999995,0,0.4514858990000903
57,397,FarHighWide,0.5,0.25,0.03,0.01995262314968879,1,0.773260240999889
57,398,FarLowNarrow,0.1,0.15,0.2,0.01995262314968879,1,0.6326070239999808
57,399,FarHighNarrow,0.2,0.15,0.1,0.01995262314968879,0,1.0022259389997998
57,400,FarHighNarrow,0.2,0.15,0.1,0.025118864315095794,1,0.326965287999883
57,401,FarLowNarrow,0.1,0.15,0.2,0.015848931924611127,0,0.360898460000044
57,402,FarHighWide,0.5,0.25,0.03,0.015848931924611127,0,0.49809395400006906
57,403,FarLowWide,0.03,0.25,0.5,0.015848931924611127,0,0.5572975489999408
57,404,FarLowWide,0.03,0.25,0.5,0.01995262314968879,1,0.6469916169999124
57,405,FarHighWide,0.5,0.25,0.03,0.01995262314968879,1,0.4730318189999707
57,406,Constant_null,0.1,0.1,0.1,0.015848931924611127,1,0.5226900859997841
57,407,FarHighWide,0.5,0.25,0.03,0.015848931924611127,1,0.6448089119999167
57,408,FarHighNarrow,0.2,0.15,0.1,0.01995262314968879,1,0.7341284310000447
57,409,FarHighNarrow_null,0.2,0.15,0.1,0.031622776601683784,1,0.49601488200005406
57,410,FarLowNarrow,0.1,0.15,0.2,0.01995262314968879,1,0.45097376700005043
57,411,FarLowWide,0.03,0.25,0.5,0.015848931924611127,1,0.49804358100027457
57,412,FarLowNarrow,0.1,0.15,0.2,0.015848931924611127,1,0.3810706630001732
57,413,FarHighWide,0.5,0.25,0.03,0.012589254117941666,0,0.4704178250003679
57,414,FarLowNarrow,0.1,0.15,0.2,0.012589254117941666,1,0.6779245910001919
57,415,FarLowNarrow,0.1,0.15,0.2,0.009999999999999995,1,0.6477499940001508
57,416,Constant,0.1,0.1,0.1,0.012589254117941666,1,0.5854934330000106
57,417,FarLowNarrow,0.1,0.15,0.2,0.00794328234724281,0,99
57,418,FarLowNarrow,0.1,0.15,0.2,0.009999999999999995,0,0.33883859600018695
57,419,FarHighNarrow_null,0.2,0.15,0.1,0.02511886431509579,1,0.49335565899991707
57,420,FarLowWide,0.03,0.25,0.5,0.012589254117941666,0,0.6948217519998252
57,421,FarLowNarrow,0.1,0.15,0.2,0.012589254117941666,0,0.5050397619997966
57,422,FarHighWide,0.5,0.25,0.03,0.015848931924611127,1,0.5549165810002705
57,423,FarHighNarrow,0.2,0.15,0.1,0.015848931924611127,0,0.4453339659999074
57,424,FarHighNarrow_null,0.2,0.15,0.1,0.01995262314968879,1,0.42301786600000923
57,425,FarLowNarrow_null,0.1,0.15,0.2,0.03981071705534971,1,0.529351160999795
57,426,Constant,0.1,0.1,0.1,0.009999999999999995,0,0.5795735899996544
57,427,Constant,0.1,0.1,0.1,0.012589254117941666,0,0.7496801410002263
57,428,FarLowNarrow_null,0.1,0.15,0.2,0.031622776601683784,1,0.8082474469997578
57,429,FarHighNarrow,0.2,0.15,0.1,0.01995262314968879,1,0.6624640039999576
57,430,Constant,0.1,0.1,0.1,0.015848931924611127,1,0.49722554299978583
57,431,FarHighWide,0.5,0.25,0.03,0.012589254117941666,0,0.5678414099998008
57,432,FarHighNarrow,0.2,0.15,0.1,0.015848931924611127,1,0.6424504050000905
57,433,FarHighNarrow,0.2,0.15,0.1,0.012589254117941666,1,0.5079536370003552
57,434,FarHighWide,0.5,0.25,0.03,0.015848931924611127,1,0.8683953249997103
57,435,FarLowWide,0.03,0.25,0.5,0.015848931924611127,0,0.48535931600008553
57,436,Constant,0.1,0.1,0.1,0.012589254117941666,1,0.639959312999963
57,437,FarHighNarrow,0.2,0.15,0.1,0.009999999999999995,0,0.9055237109996597
57,438,Constant,0.1,0.1,0.1,0.009999999999999995,1,0.7801128870000866
57,439,FarHighWide,0.5,0.25,0.03,0.012589254117941666,1,0.67824962900022
57,440,FarHighWide,0.5,0.25,0.03,0.009999999999999995,1,0.3918263370001114
57,441,Constant,0.1,0.1,0.1,0.00794328234724281,1,0.5860497610001403
57,442,FarHighNarrow,0.2,0.15,0.1,0.012589254117941666,1,0.43560085500030254
57,443,FarLowWide,0.03,0.25,0.5,0.01995262314968879,1,0.42989360500041585
57,444,FarHighWide,0.5,0.25,0.03,0.00794328234724281,0,0.3920489660004023
57,445,FarHighWide,0.5,0.25,0.03,0.009999999999999995,0,0.5139720109996233
57,446,FarLowWide,0.03,0.25,0.5,0.015848931924611127,1,0.4657721099997616
57,447,FarLowWide,0.03,0.25,0.5,0.012589254117941666,0,0.5799909229999685
57,448,FarLowWide,0.03,0.25,0.5,0.015848931924611127,0,0.493483820000165
57,449,FarHighWide,0.5,0.25,0.03,0.012589254117941666,0,0.5251092640000934
57,450,FarLowWide,0.03,0.25,0.5,0.01995262314968879,0,0.8303055579999636
57,451,FarHighWide,0.5,0.25,0.03,0.015848931924611127,0,0.7825616049999553
57,452,FarHighNarrow,0.2,0.15,0.1,0.009999999999999995,0,0.8006097550000959
57,453,Constant,0.1,0.1,0.1,0.0063095734448019285,0,0.6746748900000057
57,454,FarLowWide,0.03,0.25,0.5,0.025118864315095794,1,0.5570060249997368
57,455,FarHighNarrow,0.2,0.15,0.1,0.012589254117941666,1,0.5267531829999825
57,456,FarHighNarrow,0.2,0.15,0.1,0.009999999999999995,1,0.5288531310002327
57,457,FarHighWide,0.5,0.25,0.03,0.01995262314968879,1,0.5310116030000245
57,458,FarLowWide,0.03,0.25,0.5,0.01995262314968879,1,0.5004699520000031
57,459,Constant,0.1,0.1,0.1,0.00794328234724281,1,0.47898566399999254
57,460,FarLowWide_null,0.03,0.25,0.5,0.02511886431509579,1,0.48122491300000547
57,461,FarLowWide,0.03,0.25,0.5,0.015848931924611127,1,0.507560759000171
57,462,Constant,0.1,0.1,0.1,0.0063095734448019285,0,0.4935820450000392
57,463,FarHighNarrow,0.2,0.15,0.1,0.00794328234724281,1,0.8209150659999978
57,464,Constant,0.1,0.1,0.1,0.00794328234724281,0,0.8626692950001598
57,465,Constant,0.1,0.1,0.1,0.009999999999999995,0,0.8644995069998913
57,466,FarHighWide,0.5,0.25,0.03,0.015848931924611127,1,0.41526675800014345
57,467,FarLowWide,0.03,0.25,0.5,0.012589254117941666,0,0.5060252620000938
57,468,FarHighWide,0.5,0.25,0.03,0.012589254117941666,0,0.6195604280001135
57,469,FarHighWide,0.5,0.25,0.03,0.015848931924611127,0,0.7077684800001407
57,470,Constant,0.1,0.1,0.1,0.012589254117941666,0,0.9503306359997623
57,471,FarHighWide,0.5,0.25,0.03,0.01995262314968879,1,0.5034483260001252
57,472,FarHighNarrow,0.2,0.15,0.1,0.0063095734448019285,1,0.6253535559999364
57,473,Constant,0.1,0.1,0.1,0.015848931924611127,1,0.6598046109997995
57,474,FarLowNarrow_null,0.1,0.15,0.2,0.02511886431509579,1,0.9096538520002468
57,475,FarHighWide,0.5,0.25,0.03,0.015848931924611127,1,0.8098099909998382
57,476,Constant,0.1,0.1,0.1,0.012589254117941666,1,0.6822330929999225
57,477,FarHighWide,0.5,0.25,0.03,0.012589254117941666,0,0.5896488690000297
57,478,FarHighWide,0.5,0.25,0.03,0.015848931924611127,0,0.7679298210000525
57,479,FarHighWide,0.5,0.25,0.03,0.01995262314968879,1,0.818968077000136
57,480,FarHighWide,0.5,0.25,0.03,0.015848931924611127,1,0.5608629959997415
57,481,FarHighNarrow,0.2,0.15,0.1,0.005011872336272719,0,0.6507772600002681
57,482,FarHighWide,0.5,0.25,0.03,0.012589254117941666,0,0.60534448899989
57,483,FarHighWide,0.5,0.25,0.03,0.015848931924611127,1,0.6840058530001443
57,484,FarHighWide,0.5,0.25,0.03,0.012589254117941666,0,0.4385202069997831
57,485,Constant,0.1,0.1,0.1,0.009999999999999995,0,0.4961943190000966
57,486,Constant,0.1,0.1,0.1,0.012589254117941666,0,0.46473244799972235
57,487,Constant,0.1,0.1,0.1,0.015848931924611127,1,0.754838010000185
57,488,Constant,0.1,0.1,0.1,0.012589254117941666,0,1.1811882540000624
57,489,Constant,0.1,0.1,0.1,0.015848931924611127,1,1.0142283459999817
57,490,FarHighWide,0.5,0.25,0.03,0.015848931924611127,0,1.0008663580001667
57,491,FarHighWide,0.5,0.25,0.03,0.01995262314968879,0,1.2183474230000684
57,492,FarLowNarrow_null,0.1,0.15,0.2,0.01995262314968879,0,99
57,493,Constant,0.1,0.1,0.1,0.012589254117941666,0,0.7374384499998996
57,494,FarLowWide_null,0.03,0.25,0.5,0.01995262314968879,1,0.440561635999984
57,495,Constant,0.1,0.1,0.1,0.015848931924611127,1,0.3405751830000554
57,496,Constant,0.1,0.1,0.1,0.012589254117941666,0,0.6057149000002937
57,497,FarHighNarrow_null,0.2,0.15,0.1,0.015848931924611127,1,1.0769554570001674
57,498,FarHighNarrow_null,0.2,0.15,0.1,0.012589254117941666,1,0.7023757470001328
57,499,Constant_null,0.1,0.1,0.1,0.012589254117941666,1,0.600237499999821
