Participant_Number,Trial_Number,Condition,FCfar,FCmed,FCclose,Target_Contrast,Correct_Response,Reaction_Time
87,0,ThreeLinesControl,0.0,0.0,0.1,0.1,1,0.9825868230000196
87,1,ThreeLinesControl,0.0,0.0,0.1,0.07943282347242815,0,99
87,2,FarLowWide,0.03,0.25,0.5,0.1,0,99
87,3,FarLowWide,0.03,0.25,0.5,0.1,0,99
87,4,FarHighNarrow,0.2,0.15,0.1,0.1,1,0.6704014490005648
87,5,Constant,0.1,0.1,0.1,0.1,1,0.9236313159999554
87,6,FarLowWide,0.03,0.25,0.5,0.1,1,0.801516626999728
87,7,FarLowNarrow_null,0.1,0.15,0.2,0.1,0,0.3998534769998514
87,8,FarLowNarrow,0.1,0.15,0.2,0.1,1,0.40791148800053634
87,9,FarHighNarrow,0.2,0.15,0.1,0.07943282347242815,1,0.2218571899993549
87,10,FarHighNarrow_null,0.2,0.15,0.1,0.1,1,0.3811538410009234
87,11,FarLowNarrow,0.1,0.15,0.2,0.07943282347242815,1,0.24849046700001054
87,12,Constant,0.1,0.1,0.1,0.07943282347242815,0,0.6464860100004444
87,13,ThreeLinesControl,0.0,0.0,0.1,0.1,1,0.41681296000024304
87,14,FarLowWide,0.03,0.25,0.5,0.07943282347242815,1,0.3268083880011545
87,15,FarLowWide,0.03,0.25,0.5,0.06309573444801932,1,0.5084497700008797
87,16,FarLowWide,0.03,0.25,0.5,0.05011872336272722,1,0.3678481980005017
87,17,FarLowNarrow,0.1,0.15,0.2,0.06309573444801932,1,0.3740215670004545
87,18,FarHighNarrow,0.2,0.15,0.1,0.06309573444801932,1,0.31644960599987826
87,19,ThreeLinesControl,0.0,0.0,0.1,0.07943282347242815,1,0.5296903630005545
87,20,FarLowNarrow,0.1,0.15,0.2,0.05011872336272722,1,0.4396976600000926
87,21,Constant,0.1,0.1,0.1,0.1,1,0.34966115899987926
87,22,ThreeLinesControl,0.0,0.0,0.1,0.06309573444801932,1,0.4280634000006103
87,23,FarLowNarrow,0.1,0.15,0.2,0.03981071705534971,1,0.3539884809997602
87,24,ThreeLinesControl,0.0,0.0,0.1,0.05011872336272722,1,0.3125521900001331
87,25,Constant,0.1,0.1,0.1,0.07943282347242815,1,0.27208895799958555
87,26,FarHighNarrow,0.2,0.15,0.1,0.05011872336272722,1,0.19815222599936533
87,27,Constant,0.1,0.1,0.1,0.06309573444801932,1,0.2175932419995661
87,28,FarHighWide,0.5,0.25,0.03,0.1,1,0.6879639580001822
87,29,Constant,0.1,0.1,0.1,0.05011872336272722,1,0.42978157700054
87,30,Constant,0.1,0.1,0.1,0.03981071705534971,1,0.40929448699898785
87,31,FarHighWide_null,0.5,0.25,0.03,0.1,1,0.6071996200007561
87,32,FarLowWide,0.03,0.25,0.5,0.03981071705534971,1,0.4503186759993696
87,33,FarHighNarrow,0.2,0.15,0.1,0.03981071705534971,1,0.39165011899967794
87,34,Constant,0.1,0.1,0.1,0.031622776601683784,1,0.35766030800004955
87,35,FarHighNarrow,0.2,0.15,0.1,0.031622776601683784,1,0.5558607620005205
87,36,ThreeLinesControl,0.0,0.0,0.1,0.03981071705534971,1,0.5701190809995751
87,37,Constant,0.1,0.1,0.1,0.02511886431509579,1,0.48028732700004184
87,38,FarHighWide_null,0.5,0.25,0.03,0.07943282347242815,1,0.39720722700076294
87,39,FarHighNarrow_null,0.2,0.15,0.1,0.07943282347242815,0,99
87,40,ThreeLinesControl_null,0.0,0.0,0.1,0.1,1,0.20266393800011429
87,41,Constant,0.1,0.1,0.1,0.01995262314968879,1,0.8564766019990202
87,42,FarLowNarrow_null,0.1,0.15,0.2,0.1,1,0.5040075270007947
87,43,FarHighWide,0.5,0.25,0.03,0.07943282347242815,1,0.4833751919995848
87,44,FarLowNarrow,0.1,0.15,0.2,0.031622776601683784,1,0.41723260399885476
87,45,FarHighNarrow,0.2,0.15,0.1,0.02511886431509579,1,0.5982810879995668
87,46,FarHighWide,0.5,0.25,0.03,0.06309573444801932,1,0.7377260619996377
87,47,FarHighNarrow,0.2,0.15,0.1,0.01995262314968879,1,0.7359254610000789
87,48,FarLowNarrow,0.1,0.15,0.2,0.02511886431509579,1,0.5469744229994831
87,49,FarHighWide,0.5,0.25,0.03,0.05011872336272722,1,0.40111034199981077
87,50,Constant,0.1,0.1,0.1,0.015848931924611127,1,0.2790818149987899
87,51,FarHighWide,0.5,0.25,0.03,0.03981071705534971,1,0.4764893719984684
87,52,FarLowWide,0.03,0.25,0.5,0.031622776601683784,1,0.5153713780000544
87,53,ThreeLinesControl_null,0.0,0.0,0.1,0.07943282347242815,1,0.4482309040013206
87,54,FarLowWide,0.03,0.25,0.5,0.02511886431509579,1,0.4541030310010683
87,55,FarLowNarrow,0.1,0.15,0.2,0.01995262314968879,1,0.40455095400102437
87,56,FarLowNarrow,0.1,0.15,0.2,0.015848931924611127,1,0.4589794969997456
87,57,FarHighNarrow,0.2,0.15,0.1,0.015848931924611127,1,0.4485631480001757
87,58,FarHighWide,0.5,0.25,0.03,0.031622776601683784,1,0.5599512299995695
87,59,ThreeLinesControl,0.0,0.0,0.1,0.031622776601683784,1,0.4995737650006049
87,60,FarLowWide,0.03,0.25,0.5,0.01995262314968879,1,0.5211685020003642
87,61,FarLowNarrow,0.1,0.15,0.2,0.012589254117941666,1,0.4787614720007696
87,62,FarLowNarrow,0.1,0.15,0.2,0.009999999999999995,0,0.5148956059983902
87,63,FarHighNarrow,0.2,0.15,0.1,0.012589254117941666,0,0.400209179999365
87,64,FarHighWide,0.5,0.25,0.03,0.02511886431509579,1,0.47829549000016414
87,65,FarLowWide,0.03,0.25,0.5,0.015848931924611127,1,0.47328469200147083
87,66,FarHighNarrow,0.2,0.15,0.1,0.015848931924611127,1,0.5351915600003849
87,67,Constant,0.1,0.1,0.1,0.012589254117941666,1,0.6217708389995096
87,68,FarLowNarrow,0.1,0.15,0.2,0.012589254117941666,0,0.4275369110000611
87,69,ThreeLinesControl,0.0,0.0,0.1,0.02511886431509579,0,0.43369861300016055
87,70,FarLowNarrow,0.1,0.15,0.2,0.015848931924611127,1,0.34428310899966164
87,71,FarLowNarrow,0.1,0.15,0.2,0.012589254117941666,1,0.40593523000097775
87,72,FarHighWide_null,0.5,0.25,0.03,0.06309573444801932,1,0.48331528499875276
87,73,FarLowNarrow,0.1,0.15,0.2,0.009999999999999995,1,0.6741250100003526
87,74,FarLowNarrow,0.1,0.15,0.2,0.00794328234724281,0,0.2255475749989273
87,75,Constant_null,0.1,0.1,0.1,0.1,1,0.295440421999956
87,76,FarHighNarrow,0.2,0.15,0.1,0.012589254117941666,0,0.3547560240003804
87,77,FarLowNarrow,0.1,0.15,0.2,0.009999999999999995,0,0.3931236410007841
87,78,Constant,0.1,0.1,0.1,0.009999999999999995,0,0.3879496270001255
87,79,FarHighNarrow,0.2,0.15,0.1,0.015848931924611127,0,0.4104894530009915
87,80,FarHighWide,0.5,0.25,0.03,0.01995262314968879,1,0.6482710529999167
87,81,FarLowNarrow,0.1,0.15,0.2,0.012589254117941666,1,0.4755812870007503
87,82,FarHighNarrow,0.2,0.15,0.1,0.01995262314968879,1,0.3137951660010003
87,83,ThreeLinesControl,0.0,0.0,0.1,0.031622776601683784,1,0.23189719500078354
87,84,ThreeLinesControl,0.0,0.0,0.1,0.02511886431509579,1,0.20631165799932205
87,85,Constant,0.1,0.1,0.1,0.012589254117941666,1,0.36404041899913864
87,86,FarLowWide,0.03,0.25,0.5,0.012589254117941666,0,0.6494605719999527
87,87,FarLowWide,0.03,0.25,0.5,0.015848931924611127,0,0.6632752670011541
87,88,ThreeLinesControl,0.0,0.0,0.1,0.01995262314968879,1,0.5895572019999236
87,89,ThreeLinesControl,0.0,0.0,0.1,0.015848931924611127,1,0.6608250419994874
87,90,FarLowWide,0.03,0.25,0.5,0.01995262314968879,0,0.8356145770012517
87,91,FarHighWide,0.5,0.25,0.03,0.015848931924611127,1,0.538243335999141
87,92,FarLowWide,0.03,0.25,0.5,0.025118864315095794,1,0.4045725420000963
87,93,FarHighNarrow,0.2,0.15,0.1,0.015848931924611127,1,0.29032407399972726
87,94,FarLowWide,0.03,0.25,0.5,0.01995262314968879,1,0.464568731998952
87,95,FarHighNarrow,0.2,0.15,0.1,0.012589254117941666,0,0.4838446699995984
87,96,FarHighNarrow,0.2,0.15,0.1,0.015848931924611127,1,0.7301696039994567
87,97,FarHighWide,0.5,0.25,0.03,0.012589254117941666,1,0.6617442930000834
87,98,FarLowWide,0.03,0.25,0.5,0.015848931924611127,1,0.3803509240005951
87,99,ThreeLinesControl,0.0,0.0,0.1,0.012589254117941666,0,0.43436655799996515
87,100,FarLowWide,0.03,0.25,0.5,0.012589254117941666,1,0.24734387900025467
87,101,FarLowWide,0.03,0.25,0.5,0.009999999999999995,0,0.6614995960007946
87,102,FarLowWide,0.03,0.25,0.5,0.012589254117941666,0,0.5078335289999814
87,103,FarLowWide,0.03,0.25,0.5,0.015848931924611127,0,0.49823173500044504
87,104,ThreeLinesControl,0.0,0.0,0.1,0.015848931924611127,1,0.5680094189992815
87,105,FarHighNarrow,0.2,0.15,0.1,0.012589254117941666,0,0.5178815259987459
87,106,FarHighNarrow,0.2,0.15,0.1,0.015848931924611127,1,0.19757113000014215
87,107,FarLowWide,0.03,0.25,0.5,0.01995262314968879,1,0.21131301300010819
87,108,FarLowNarrow,0.1,0.15,0.2,0.009999999999999995,0,0.5507225620003737
87,109,FarLowWide,0.03,0.25,0.5,0.015848931924611127,0,0.8046616779993201
87,110,FarHighNarrow,0.2,0.15,0.1,0.012589254117941666,1,0.5306323389995669
87,111,FarHighWide,0.5,0.25,0.03,0.009999999999999995,1,0.7260086720016261
87,112,ThreeLinesControl_null,0.0,0.0,0.1,0.06309573444801932,1,0.5151905530001386
87,113,FarLowWide,0.03,0.25,0.5,0.01995262314968879,0,0.28802883899879816
87,114,ThreeLinesControl,0.0,0.0,0.1,0.012589254117941666,1,0.43778425799973775
87,115,FarHighWide,0.5,0.25,0.03,0.00794328234724281,0,0.5396701239988033
87,116,FarLowWide,0.03,0.25,0.5,0.025118864315095794,0,0.36985810499936633
87,117,FarHighWide_null,0.5,0.25,0.03,0.05011872336272722,1,0.440020120000554
87,118,FarHighWide,0.5,0.25,0.03,0.009999999999999995,0,0.5261763760008762
87,119,FarLowWide,0.03,0.25,0.5,0.031622776601683784,1,0.4673733600011474
87,120,FarLowWide,0.03,0.25,0.5,0.02511886431509579,1,0.6918242100000498
87,121,FarLowWide,0.03,0.25,0.5,0.01995262314968879,1,0.44163707200095814
87,122,FarLowWide,0.03,0.25,0.5,0.015848931924611127,1,0.3840994510010205
87,123,FarLowWide_null,0.03,0.25,0.5,0.1,1,0.4529918810003437
87,124,FarLowNarrow,0.1,0.15,0.2,0.012589254117941666,0,0.4596998969991546
87,125,FarLowWide,0.03,0.25,0.5,0.012589254117941666,0,0.43824160499934806
87,126,ThreeLinesControl,0.0,0.0,0.1,0.009999999999999995,0,0.4362614570000005
87,127,FarLowWide,0.03,0.25,0.5,0.015848931924611127,1,0.4503119239998341
87,128,ThreeLinesControl,0.0,0.0,0.1,0.012589254117941666,0,0.4538285420003376
87,129,FarLowWide,0.03,0.25,0.5,0.012589254117941666,1,0.4759898919983243
87,130,FarHighWide,0.5,0.25,0.03,0.012589254117941666,1,0.7141270610009087
87,131,FarLowNarrow,0.1,0.15,0.2,0.015848931924611127,1,0.5262542739983473
87,132,FarHighNarrow,0.2,0.15,0.1,0.009999999999999995,1,0.47664291899855016
87,133,Constant,0.1,0.1,0.1,0.009999999999999995,1,0.5465971260000515
87,134,FarHighWide,0.5,0.25,0.03,0.009999999999999995,1,0.649233476999143
87,135,FarHighWide,0.5,0.25,0.03,0.00794328234724281,0,0.36682158399889886
87,136,Constant,0.1,0.1,0.1,0.00794328234724281,0,0.27025686700108054
87,137,Constant,0.1,0.1,0.1,0.009999999999999995,0,0.7012122810010624
87,138,FarHighNarrow,0.2,0.15,0.1,0.00794328234724281,0,0.546292633000121
87,139,ThreeLinesControl,0.0,0.0,0.1,0.015848931924611127,0,0.3043736440013163
87,140,FarHighWide,0.5,0.25,0.03,0.009999999999999995,1,0.541683256999022
87,141,FarHighWide_null,0.5,0.25,0.03,0.03981071705534971,1,0.5238975909996952
87,142,FarHighWide,0.5,0.25,0.03,0.00794328234724281,0,0.6866171090005082
87,143,FarHighWide,0.5,0.25,0.03,0.009999999999999995,0,0.5970437209998636
87,144,FarLowNarrow_null,0.1,0.15,0.2,0.07943282347242815,1,0.36019386100088013
87,145,FarLowWide,0.03,0.25,0.5,0.009999999999999995,0,0.5502912219999416
87,146,FarLowWide,0.03,0.25,0.5,0.012589254117941666,0,0.4762883619987406
87,147,FarLowNarrow,0.1,0.15,0.2,0.012589254117941666,0,0.513431731998935
87,148,ThreeLinesControl_null,0.0,0.0,0.1,0.05011872336272722,1,0.5347582479989796
87,149,FarHighNarrow,0.2,0.15,0.1,0.009999999999999995,0,0.5488569549997919
87,150,Constant,0.1,0.1,0.1,0.012589254117941666,1,0.49929044300006353
87,151,FarHighWide,0.5,0.25,0.03,0.012589254117941666,0,0.5293061889988167
87,152,ThreeLinesControl,0.0,0.0,0.1,0.01995262314968879,0,0.6887064860002283
87,153,FarHighNarrow_null,0.2,0.15,0.1,0.1,1,0.5832649359999778
87,154,FarHighWide,0.5,0.25,0.03,0.015848931924611127,1,0.6694974419988284
87,155,FarHighNarrow,0.2,0.15,0.1,0.012589254117941666,0,0.48987314399892057
87,156,FarLowNarrow,0.1,0.15,0.2,0.015848931924611127,0,99
87,157,FarHighWide,0.5,0.25,0.03,0.012589254117941666,0,0.35830113799966057
87,158,FarHighWide,0.5,0.25,0.03,0.015848931924611127,1,0.9533847040002001
87,159,FarLowNarrow,0.1,0.15,0.2,0.01995262314968879,1,0.5116936169997643
87,160,FarLowWide,0.03,0.25,0.5,0.015848931924611127,1,0.42148162099874753
87,161,ThreeLinesControl,0.0,0.0,0.1,0.025118864315095794,1,0.5206699729988031
87,162,FarLowWide,0.03,0.25,0.5,0.012589254117941666,0,0.6867582559989387
87,163,FarHighNarrow,0.2,0.15,0.1,0.015848931924611127,1,0.4841653600014979
87,164,FarHighNarrow,0.2,0.15,0.1,0.012589254117941666,1,0.6177530999993905
87,165,Constant,0.1,0.1,0.1,0.009999999999999995,0,0.5754002619996754
87,166,Constant,0.1,0.1,0.1,0.012589254117941666,0,0.5655017610006325
87,167,FarHighWide,0.5,0.25,0.03,0.012589254117941666,0,0.7477035590000014
87,168,FarLowWide,0.03,0.25,0.5,0.015848931924611127,1,0.7140041820002807
87,169,FarHighWide,0.5,0.25,0.03,0.015848931924611127,1,0.4805389289995219
87,170,ThreeLinesControl,0.0,0.0,0.1,0.01995262314968879,1,0.5760012310001912
87,171,FarHighNarrow,0.2,0.15,0.1,0.009999999999999995,1,0.6673478820011951
87,172,ThreeLinesControl,0.0,0.0,0.1,0.015848931924611127,0,0.7064005690008344
87,173,FarHighWide,0.5,0.25,0.03,0.012589254117941666,1,0.6243929920001392
87,174,FarHighNarrow,0.2,0.15,0.1,0.00794328234724281,1,0.7157157029996597
87,175,FarLowNarrow,0.1,0.15,0.2,0.015848931924611127,1,0.5609953420007514
87,176,ThreeLinesControl,0.0,0.0,0.1,0.01995262314968879,1,0.5029887189994042
87,177,FarLowNarrow,0.1,0.15,0.2,0.012589254117941666,1,0.6583717390003585
87,178,FarLowNarrow,0.1,0.15,0.2,0.009999999999999995,0,0.680246038000405
87,179,FarLowNarrow,0.1,0.15,0.2,0.012589254117941666,0,0.9905766579995543
87,180,FarHighWide,0.5,0.25,0.03,0.009999999999999995,1,0.835736781000378
87,181,Constant,0.1,0.1,0.1,0.015848931924611127,1,0.47376120499939134
87,182,FarHighWide,0.5,0.25,0.03,0.00794328234724281,1,0.5513886549997551
87,183,FarLowWide,0.03,0.25,0.5,0.012589254117941666,0,0.7420660839998163
87,184,ThreeLinesControl_null,0.0,0.0,0.1,0.03981071705534971,1,0.7002920449995145
87,185,FarLowWide,0.03,0.25,0.5,0.015848931924611127,0,0.8508786260008492
87,186,Constant,0.1,0.1,0.1,0.012589254117941666,1,0.8016662749996613
87,187,Constant,0.1,0.1,0.1,0.009999999999999995,1,0.640710396999566
87,188,FarLowNarrow,0.1,0.15,0.2,0.015848931924611127,1,0.6928143069999351
87,189,FarHighNarrow,0.2,0.15,0.1,0.0063095734448019285,1,0.6510478569998668
87,190,ThreeLinesControl,0.0,0.0,0.1,0.015848931924611127,1,0.6379032800014102
87,191,Constant_null,0.1,0.1,0.1,0.07943282347242815,1,0.5873650809990068
87,192,FarLowWide,0.03,0.25,0.5,0.01995262314968879,1,0.6011469500008388
87,193,Constant,0.1,0.1,0.1,0.00794328234724281,0,0.37247646499963594
87,194,FarHighNarrow,0.2,0.15,0.1,0.005011872336272719,1,0.2668299359993398
87,195,Constant_null,0.1,0.1,0.1,0.06309573444801932,0,0.6008054539997829
87,196,ThreeLinesControl,0.0,0.0,0.1,0.012589254117941666,0,0.6455699779999122
87,197,FarLowNarrow,0.1,0.15,0.2,0.012589254117941666,0,0.5238434719994984
87,198,FarLowWide,0.03,0.25,0.5,0.015848931924611127,1,0.42630726599963964
87,199,ThreeLinesControl,0.0,0.0,0.1,0.015848931924611127,1,0.2872513739985152
87,200,ThreeLinesControl,0.0,0.0,0.1,0.012589254117941666,0,0.6936487500006479
87,201,FarLowWide,0.03,0.25,0.5,0.012589254117941666,1,0.28434356700017815
87,202,ThreeLinesControl,0.0,0.0,0.1,0.015848931924611127,1,0.6757001859987213
87,203,FarHighWide,0.5,0.25,0.03,0.0063095734448019285,0,0.4979243599991605
87,204,FarHighWide,0.5,0.25,0.03,0.00794328234724281,1,0.7098897220002982
87,205,ThreeLinesControl,0.0,0.0,0.1,0.012589254117941666,0,0.5870969079987844
87,206,FarHighNarrow,0.2,0.15,0.1,0.00398107170553497,0,0.6413004059995728
87,207,ThreeLinesControl,0.0,0.0,0.1,0.015848931924611127,1,0.5647319290001178
87,208,FarLowNarrow,0.1,0.15,0.2,0.015848931924611127,1,0.458600945001308
87,209,FarLowWide,0.03,0.25,0.5,0.009999999999999995,0,0.5496352520003711
87,210,ThreeLinesControl,0.0,0.0,0.1,0.012589254117941666,1,0.4281813819998206
87,211,FarHighNarrow,0.2,0.15,0.1,0.00501187233627272,1,0.5697743420005281
87,212,Constant,0.1,0.1,0.1,0.009999999999999995,0,0.6002572220004367
87,213,FarLowNarrow,0.1,0.15,0.2,0.012589254117941666,0,0.49349373699988064
87,214,Constant_null,0.1,0.1,0.1,0.07943282347242814,1,0.5076260260011622
87,215,Constant,0.1,0.1,0.1,0.012589254117941666,0,0.49768283599951246
87,216,FarHighNarrow,0.2,0.15,0.1,0.00398107170553497,0,0.5516600279988779
87,217,Constant,0.1,0.1,0.1,0.015848931924611127,0,0.5020780249997188
87,218,Constant_null,0.1,0.1,0.1,0.06309573444801932,0,0.53241879000052
87,219,FarLowNarrow,0.1,0.15,0.2,0.015848931924611127,1,0.5314885450006841
87,220,FarHighWide,0.5,0.25,0.03,0.0063095734448019285,0,0.8542803410000488
87,221,FarHighWide,0.5,0.25,0.03,0.00794328234724281,1,0.7725800789994537
87,222,FarLowWide,0.03,0.25,0.5,0.012589254117941666,0,0.6665540180001699
87,223,Constant,0.1,0.1,0.1,0.01995262314968879,1,0.6299418760008848
87,224,FarLowNarrow,0.1,0.15,0.2,0.012589254117941666,0,0.7000103099999251
87,225,ThreeLinesControl,0.0,0.0,0.1,0.009999999999999995,0,0.8260595330011711
87,226,FarLowWide_null,0.03,0.25,0.5,0.07943282347242815,1,0.6845478040013404
87,227,FarLowWide,0.03,0.25,0.5,0.015848931924611127,1,0.6032119629999215
87,228,ThreeLinesControl,0.0,0.0,0.1,0.012589254117941666,1,0.5206901439996727
87,229,FarLowWide,0.03,0.25,0.5,0.012589254117941666,1,0.902854011999807
87,230,FarLowWide_null,0.03,0.25,0.5,0.06309573444801932,1,0.7483709349999117
87,231,FarHighNarrow,0.2,0.15,0.1,0.00501187233627272,0,0.6981159369988745
87,232,FarLowWide,0.03,0.25,0.5,0.009999999999999995,0,0.7119671219988959
87,233,FarHighNarrow,0.2,0.15,0.1,0.006309573444801929,0,0.6863276269996277
87,234,FarHighNarrow_null,0.2,0.15,0.1,0.07943282347242815,1,0.6137375299986161
87,235,FarLowNarrow,0.1,0.15,0.2,0.015848931924611127,1,0.5874939309996989
87,236,FarHighWide,0.5,0.25,0.03,0.0063095734448019285,0,0.5427798889995756
87,237,Constant,0.1,0.1,0.1,0.015848931924611127,1,0.6928841760000068
87,238,FarHighWide,0.5,0.25,0.03,0.00794328234724281,1,0.6113653459997295
87,239,FarLowNarrow,0.1,0.15,0.2,0.012589254117941666,1,0.6703673939991859
87,240,FarLowWide,0.03,0.25,0.5,0.012589254117941666,0,0.6232698429994343
87,241,FarLowWide,0.03,0.25,0.5,0.015848931924611127,0,0.6134931579999829
87,242,ThreeLinesControl,0.0,0.0,0.1,0.009999999999999995,0,0.45953275700048835
87,243,FarHighWide,0.5,0.25,0.03,0.0063095734448019285,0,0.4864820390012028
87,244,FarLowNarrow,0.1,0.15,0.2,0.009999999999999995,0,0.2845540400012396
87,245,FarLowNarrow,0.1,0.15,0.2,0.012589254117941666,0,0.42716328099959355
87,246,FarHighWide,0.5,0.25,0.03,0.00794328234724281,1,0.46196696600054565
87,247,FarLowWide,0.03,0.25,0.5,0.01995262314968879,1,0.42051019099926634
87,248,Constant,0.1,0.1,0.1,0.012589254117941666,0,0.658356157999151
87,249,Constant,0.1,0.1,0.1,0.015848931924611127,1,0.3286227080006938
87,250,Constant,0.1,0.1,0.1,0.012589254117941666,1,0.2307813659990643
87,251,ThreeLinesControl_null,0.0,0.0,0.1,0.031622776601683784,0,0.4603477609998663
87,252,FarLowNarrow,0.1,0.15,0.2,0.015848931924611127,1,0.45789876600065327
87,253,FarLowNarrow,0.1,0.15,0.2,0.012589254117941666,1,0.2800958130010258
87,254,FarLowWide,0.03,0.25,0.5,0.015848931924611127,1,0.3434257900007651
87,255,ThreeLinesControl,0.0,0.0,0.1,0.012589254117941666,0,0.4621714629993221
87,256,FarLowNarrow,0.1,0.15,0.2,0.009999999999999995,1,0.4605735389995971
87,257,FarHighNarrow,0.2,0.15,0.1,0.007943282347242812,1,0.42392265400121687
87,258,FarHighWide,0.5,0.25,0.03,0.0063095734448019285,1,0.6379414460006956
87,259,ThreeLinesControl,0.0,0.0,0.1,0.015848931924611127,1,0.69617291600116
87,260,FarHighNarrow,0.2,0.15,0.1,0.006309573444801929,0,0.542364176000774
87,261,FarHighWide,0.5,0.25,0.03,0.005011872336272719,0,0.4442363519992796
87,262,FarHighWide,0.5,0.25,0.03,0.0063095734448019285,0,0.5524078319995169
87,263,FarHighNarrow,0.2,0.15,0.1,0.007943282347242812,0,0.4867673469998408
87,264,ThreeLinesControl,0.0,0.0,0.1,0.012589254117941666,0,0.852485119999983
87,265,Constant,0.1,0.1,0.1,0.009999999999999995,1,0.6671453839990136
87,266,Constant,0.1,0.1,0.1,0.00794328234724281,1,0.455950434999977
87,267,Constant,0.1,0.1,0.1,0.0063095734448019285,0,0.710402927999894
87,268,FarLowNarrow_null,0.1,0.15,0.2,0.06309573444801932,1,0.6443934500002797
87,269,FarHighWide,0.5,0.25,0.03,0.00794328234724281,0,0.49869662299897755
87,270,FarLowWide,0.03,0.25,0.5,0.012589254117941666,0,0.5535760740003752
87,271,FarLowWide,0.03,0.25,0.5,0.015848931924611127,1,0.4957189870001457
87,272,FarLowNarrow,0.1,0.15,0.2,0.00794328234724281,1,0.5739424509993114
87,273,Constant_null,0.1,0.1,0.1,0.07943282347242814,1,0.593153652998808
87,274,FarLowWide,0.03,0.25,0.5,0.012589254117941666,0,0.5514923790015018
87,275,FarLowWide,0.03,0.25,0.5,0.015848931924611127,1,0.7943029050002224
87,276,Constant,0.1,0.1,0.1,0.00794328234724281,0,0.6882938750004541
87,277,FarHighNarrow,0.2,0.15,0.1,0.009999999999999997,0,0.5105982259992743
87,278,FarLowNarrow_null,0.1,0.15,0.2,0.05011872336272722,1,0.6028872389997559
87,279,FarHighNarrow,0.2,0.15,0.1,0.012589254117941668,1,0.6971637209990149
87,280,FarLowNarrow,0.1,0.15,0.2,0.0063095734448019285,0,0.6144910450002499
87,281,FarLowNarrow,0.1,0.15,0.2,0.00794328234724281,1,0.5481221729987737
87,282,FarHighNarrow_null,0.2,0.15,0.1,0.06309573444801932,1,0.6744145180000487
87,283,FarLowWide,0.03,0.25,0.5,0.012589254117941666,0,0.5922884399988106
87,284,FarLowNarrow,0.1,0.15,0.2,0.0063095734448019285,0,0.6307530029989721
87,285,FarHighNarrow,0.2,0.15,0.1,0.009999999999999997,0,0.7888531709995732
87,286,Constant,0.1,0.1,0.1,0.009999999999999995,0,99
87,287,FarLowWide,0.03,0.25,0.5,0.015848931924611127,0,0.19421690700073668
87,288,ThreeLinesControl,0.0,0.0,0.1,0.015848931924611127,1,0.3289815290008846
87,289,FarHighWide,0.5,0.25,0.03,0.009999999999999995,0,0.49975322800128197
87,290,FarHighWide,0.5,0.25,0.03,0.012589254117941666,0,0.4494683390003047
87,291,FarHighWide,0.5,0.25,0.03,0.015848931924611127,1,0.5919610929995542
87,292,FarLowNarrow,0.1,0.15,0.2,0.00794328234724281,0,0.8426956590010377
87,293,FarHighWide,0.5,0.25,0.03,0.012589254117941666,1,0.5449906199992256
87,294,FarHighNarrow,0.2,0.15,0.1,0.012589254117941668,1,0.5885467629996128
87,295,FarHighWide,0.5,0.25,0.03,0.009999999999999995,1,0.5475047809995885
87,296,FarHighWide,0.5,0.25,0.03,0.00794328234724281,1,0.6415339390005101
87,297,FarHighNarrow,0.2,0.15,0.1,0.009999999999999997,1,0.6467714900009014
87,298,ThreeLinesControl,0.0,0.0,0.1,0.012589254117941666,1,0.8216211729995848
87,299,FarLowWide,0.03,0.25,0.5,0.01995262314968879,1,0.674967207998634
87,300,FarHighNarrow,0.2,0.15,0.1,0.007943282347242812,0,0.5781358160002128
87,301,FarHighNarrow_null,0.2,0.15,0.1,0.05011872336272722,0,0.3045648050010641
87,302,ThreeLinesControl,0.0,0.0,0.1,0.009999999999999995,0,0.520547912999973
87,303,FarLowNarrow,0.1,0.15,0.2,0.009999999999999995,0,0.34242524599903845
87,304,FarLowNarrow,0.1,0.15,0.2,0.012589254117941666,0,0.2767736159985361
87,305,FarHighWide,0.5,0.25,0.03,0.0063095734448019285,0,0.5028517259997898
87,306,Constant,0.1,0.1,0.1,0.012589254117941666,0,0.5410471010000037
87,307,FarLowWide,0.03,0.25,0.5,0.015848931924611127,1,0.46717367800010834
87,308,Constant_null,0.1,0.1,0.1,0.06309573444801932,1,0.46145511100075964
87,309,ThreeLinesControl,0.0,0.0,0.1,0.012589254117941666,0,0.795604947999891
87,310,FarHighNarrow,0.2,0.15,0.1,0.009999999999999997,1,0.9058493780012213
87,311,FarLowWide,0.03,0.25,0.5,0.012589254117941666,1,0.8865110629994888
87,312,FarLowNarrow,0.1,0.15,0.2,0.015848931924611127,1,0.5960998230002588
87,313,ThreeLinesControl,0.0,0.0,0.1,0.015848931924611127,1,0.4980706559999817
87,314,FarLowNarrow,0.1,0.15,0.2,0.012589254117941666,1,0.5599533139993582
87,315,FarHighWide,0.5,0.25,0.03,0.00794328234724281,0,0.43070373500086134
87,316,FarHighNarrow,0.2,0.15,0.1,0.007943282347242812,1,0.6069635370004107
87,317,FarHighNarrow,0.2,0.15,0.1,0.006309573444801929,0,0.549377421999452
87,318,FarHighWide_null,0.5,0.25,0.03,0.031622776601683784,1,0.41892286099937337
87,319,FarHighWide,0.5,0.25,0.03,0.009999999999999995,0,0.4548998720001691
87,320,FarHighNarrow,0.2,0.15,0.1,0.007943282347242812,1,0.39128311699823826
87,321,Constant,0.1,0.1,0.1,0.015848931924611127,1,0.4683167509992927
87,322,Constant,0.1,0.1,0.1,0.012589254117941666,1,0.5832544719996804
87,323,FarHighWide,0.5,0.25,0.03,0.012589254117941666,0,99
87,324,FarLowNarrow,0.1,0.15,0.2,0.009999999999999995,1,1.2168249629994534
87,325,FarHighNarrow,0.2,0.15,0.1,0.006309573444801929,0,0.5669441189984354
87,326,FarLowWide,0.03,0.25,0.5,0.009999999999999995,1,0.36452258999997866
87,327,FarHighWide,0.5,0.25,0.03,0.015848931924611127,0,0.1847838169996976
87,328,ThreeLinesControl,0.0,0.0,0.1,0.012589254117941666,0,0.4229833099998359
87,329,ThreeLinesControl,0.0,0.0,0.1,0.015848931924611127,1,0.3653725470012432
87,330,ThreeLinesControl,0.0,0.0,0.1,0.012589254117941666,1,0.45982399499916937
87,331,FarLowWide_null,0.03,0.25,0.5,0.05011872336272722,1,0.2976138610010821
87,332,ThreeLinesControl,0.0,0.0,0.1,0.009999999999999995,1,0.7289776609995897
87,333,FarHighWide,0.5,0.25,0.03,0.01995262314968879,0,0.39798423200045363
87,334,FarHighNarrow,0.2,0.15,0.1,0.007943282347242812,0,0.27629130800050916
87,335,FarHighWide,0.5,0.25,0.03,0.025118864315095794,1,0.4824028930015629
87,336,ThreeLinesControl,0.0,0.0,0.1,0.00794328234724281,0,0.5594625040012033
87,337,FarHighWide,0.5,0.25,0.03,0.01995262314968879,1,0.43775004599956446
87,338,Constant,0.1,0.1,0.1,0.009999999999999995,0,0.18479044099876774
87,339,Constant,0.1,0.1,0.1,0.012589254117941666,1,0.26313583600131096
87,340,FarHighNarrow,0.2,0.15,0.1,0.009999999999999997,1,0.20486167800117983
87,341,Constant,0.1,0.1,0.1,0.009999999999999995,1,0.5840946480002458
87,342,Constant,0.1,0.1,0.1,0.00794328234724281,1,0.5905107950002275
87,343,ThreeLinesControl,0.0,0.0,0.1,0.009999999999999995,1,0.4994685580004443
87,344,FarLowNarrow,0.1,0.15,0.2,0.00794328234724281,0,0.5446457960006228
87,345,FarHighWide_null,0.5,0.25,0.03,0.02511886431509579,0,0.4707438290006394
87,346,Constant_null,0.1,0.1,0.1,0.05011872336272722,1,0.579861799000355
87,347,FarLowWide_null,0.03,0.25,0.5,0.03981071705534971,1,0.5302000299998326
87,348,FarLowWide,0.03,0.25,0.5,0.00794328234724281,0,0.5444183979998343
87,349,FarLowNarrow,0.1,0.15,0.2,0.009999999999999995,0,0.7038316590005707
87,350,FarLowWide,0.03,0.25,0.5,0.009999999999999995,0,0.6226086110000324
87,351,FarLowNarrow_null,0.1,0.15,0.2,0.03981071705534971,1,0.4029760470002657
87,352,FarHighWide_null,0.5,0.25,0.03,0.031622776601683784,1,0.6248027000001457
87,353,FarHighWide,0.5,0.25,0.03,0.015848931924611127,1,0.5027689010003087
87,354,FarLowWide,0.03,0.25,0.5,0.012589254117941666,1,0.562202483000874
87,355,FarLowWide,0.03,0.25,0.5,0.009999999999999995,1,0.6081286909993651
87,356,FarHighWide,0.5,0.25,0.03,0.012589254117941666,0,0.5654973010005051
87,357,FarLowNarrow,0.1,0.15,0.2,0.012589254117941666,0,0.4897123049995571
87,358,FarLowNarrow_null,0.1,0.15,0.2,0.031622776601683784,1,0.6316919659984706
87,359,FarLowWide,0.03,0.25,0.5,0.00794328234724281,0,0.6530593070001487
87,360,FarLowNarrow,0.1,0.15,0.2,0.015848931924611127,0,0.6580986789995222
87,361,FarHighNarrow,0.2,0.15,0.1,0.007943282347242812,0,0.5120463330003986
87,362,FarLowNarrow,0.1,0.15,0.2,0.01995262314968879,0,0.3418925059995672
87,363,FarLowNarrow,0.1,0.15,0.2,0.025118864315095794,1,0.5610835719999159
87,364,FarLowWide,0.03,0.25,0.5,0.009999999999999995,0,0.6071249110009376
87,365,FarLowWide,0.03,0.25,0.5,0.012589254117941666,0,0.38854059700133803
87,366,FarHighNarrow,0.2,0.15,0.1,0.009999999999999997,0,0.3944695589998446
87,367,FarLowNarrow,0.1,0.15,0.2,0.01995262314968879,0,0.2963776200012944
87,368,FarHighWide,0.5,0.25,0.03,0.015848931924611127,1,0.4549422340005549
87,369,Constant,0.1,0.1,0.1,0.0063095734448019285,0,0.42890240899942
87,370,FarHighNarrow,0.2,0.15,0.1,0.012589254117941668,1,0.49003315799927805
87,371,Constant,0.1,0.1,0.1,0.00794328234724281,0,0.7371465190008166
87,372,FarHighNarrow,0.2,0.15,0.1,0.009999999999999997,0,0.37649447200055874
87,373,ThreeLinesControl,0.0,0.0,0.1,0.00794328234724281,0,0.39067381099994236
87,374,Constant,0.1,0.1,0.1,0.009999999999999995,0,0.4655521029999363
87,375,FarHighWide,0.5,0.25,0.03,0.012589254117941666,1,0.4877936389984825
87,376,ThreeLinesControl,0.0,0.0,0.1,0.009999999999999995,0,0.4831518130013137
87,377,FarHighNarrow,0.2,0.15,0.1,0.012589254117941668,1,0.5211757289998786
87,378,FarHighNarrow_null,0.2,0.15,0.1,0.06309573444801932,1,0.4713094779999665
87,379,FarLowWide,0.03,0.25,0.5,0.015848931924611127,1,0.4824510710004688
87,380,FarLowNarrow,0.1,0.15,0.2,0.025118864315095794,1,0.4726697009991767
87,381,FarHighNarrow,0.2,0.15,0.1,0.009999999999999997,1,0.48584956800004875
87,382,FarLowWide,0.03,0.25,0.5,0.012589254117941666,0,0.5400831070001004
87,383,ThreeLinesControl,0.0,0.0,0.1,0.012589254117941666,0,0.7858973910006171
87,384,FarHighNarrow,0.2,0.15,0.1,0.007943282347242812,0,0.6721004350001749
87,385,Constant,0.1,0.1,0.1,0.012589254117941666,1,0.6064594769995892
87,386,FarLowWide,0.03,0.25,0.5,0.015848931924611127,0,0.7084526279995771
87,387,FarHighNarrow,0.2,0.15,0.1,0.009999999999999997,0,0.6581626610004605
87,388,FarHighWide,0.5,0.25,0.03,0.009999999999999995,1,0.6483195620003244
87,389,FarLowWide,0.03,0.25,0.5,0.01995262314968879,1,0.4479548489998706
87,390,FarHighWide,0.5,0.25,0.03,0.00794328234724281,1,0.4110031309992337
87,391,ThreeLinesControl,0.0,0.0,0.1,0.015848931924611127,1,0.48929002600016247
87,392,FarLowNarrow,0.1,0.15,0.2,0.01995262314968879,1,0.4924656969997159
87,393,FarLowWide,0.03,0.25,0.5,0.015848931924611127,0,0.5384233439999662
87,394,FarHighNarrow,0.2,0.15,0.1,0.012589254117941668,0,0.5127430479988107
87,395,FarHighWide,0.5,0.25,0.03,0.0063095734448019285,1,0.7477343430000474
87,396,Constant,0.1,0.1,0.1,0.009999999999999995,0,0.45803905200045847
87,397,FarHighWide,0.5,0.25,0.03,0.005011872336272719,0,0.24820989399995597
87,398,FarHighWide,0.5,0.25,0.03,0.0063095734448019285,0,0.4618756569998368
87,399,ThreeLinesControl_null,0.0,0.0,0.1,0.03981071705534971,1,0.5071834529990156
87,400,FarLowNarrow,0.1,0.15,0.2,0.015848931924611127,1,0.4094209109989606
87,401,Constant,0.1,0.1,0.1,0.012589254117941666,1,0.47945348100074625
87,402,FarLowNarrow,0.1,0.15,0.2,0.012589254117941666,0,0.7903083369983506
87,403,Constant,0.1,0.1,0.1,0.009999999999999995,0,0.812522064001314
87,404,ThreeLinesControl_null,0.0,0.0,0.1,0.031622776601683784,1,0.7237378319987329
87,405,ThreeLinesControl,0.0,0.0,0.1,0.012589254117941666,0,0.5312162169993826
87,406,FarLowWide,0.03,0.25,0.5,0.01995262314968879,1,0.6292610109994712
87,407,FarLowWide,0.03,0.25,0.5,0.015848931924611127,1,0.499625971999194
87,408,FarHighWide,0.5,0.25,0.03,0.00794328234724281,1,0.6085466379990976
87,409,ThreeLinesControl,0.0,0.0,0.1,0.015848931924611127,0,0.4768476870012819
87,410,FarLowNarrow,0.1,0.15,0.2,0.015848931924611127,0,0.6749133649991563
87,411,FarHighWide,0.5,0.25,0.03,0.0063095734448019285,0,0.5344478719998733
87,412,FarHighWide,0.5,0.25,0.03,0.00794328234724281,0,0.6363667009991332
87,413,FarHighWide,0.5,0.25,0.03,0.009999999999999995,0,0.6013214140002674
87,414,ThreeLinesControl,0.0,0.0,0.1,0.01995262314968879,1,0.5038805379990663
87,415,Constant,0.1,0.1,0.1,0.012589254117941666,0,0.4857608269994671
87,416,FarHighWide,0.5,0.25,0.03,0.012589254117941666,1,0.4437307000007422
87,417,FarHighWide,0.5,0.25,0.03,0.009999999999999995,1,0.41783309700076643
87,418,FarLowNarrow,0.1,0.15,0.2,0.01995262314968879,1,0.5522146399998746
87,419,Constant,0.1,0.1,0.1,0.015848931924611127,1,0.4934600379983749
87,420,FarHighNarrow,0.2,0.15,0.1,0.01584893192461113,1,0.548737646000518
87,421,ThreeLinesControl,0.0,0.0,0.1,0.015848931924611127,1,0.6439596069994877
87,422,Constant,0.1,0.1,0.1,0.012589254117941666,1,0.5266203930004849
87,423,Constant,0.1,0.1,0.1,0.009999999999999995,1,0.5718873710011394
87,424,FarHighNarrow,0.2,0.15,0.1,0.012589254117941668,1,0.6260055670009024
87,425,FarHighWide,0.5,0.25,0.03,0.00794328234724281,1,0.5652852459988935
87,426,Constant,0.1,0.1,0.1,0.00794328234724281,1,0.6114034679994802
87,427,ThreeLinesControl,0.0,0.0,0.1,0.012589254117941666,1,0.6654512909990444
87,428,FarHighNarrow,0.2,0.15,0.1,0.009999999999999997,0,0.5735259289995156
87,429,FarLowWide,0.03,0.25,0.5,0.012589254117941666,0,0.5712548020001122
87,430,FarLowNarrow,0.1,0.15,0.2,0.015848931924611127,1,0.5927550960004737
87,431,FarLowWide_null,0.03,0.25,0.5,0.031622776601683784,1,0.4148737309988064
87,432,FarHighWide,0.5,0.25,0.03,0.0063095734448019285,0,0.48508803000004264
87,433,FarHighWide_null,0.5,0.25,0.03,0.02511886431509579,1,0.5232055699998455
87,434,FarLowNarrow,0.1,0.15,0.2,0.012589254117941666,0,0.5777635049998935
87,435,FarLowNarrow_null,0.1,0.15,0.2,0.02511886431509579,1,0.34362377199977345
87,436,Constant_null,0.1,0.1,0.1,0.03981071705534971,1,0.437832655999955
87,437,FarHighNarrow,0.2,0.15,0.1,0.012589254117941668,1,0.6048488349988475
87,438,ThreeLinesControl,0.0,0.0,0.1,0.009999999999999995,0,0.42730765099986456
87,439,FarHighNarrow,0.2,0.15,0.1,0.009999999999999997,0,0.6452278890010348
87,440,ThreeLinesControl,0.0,0.0,0.1,0.012589254117941666,0,0.899559228999351
87,441,FarLowNarrow,0.1,0.15,0.2,0.015848931924611127,0,0.5427803500006121
87,442,FarLowNarrow,0.1,0.15,0.2,0.01995262314968879,1,0.2528033630005666
87,443,FarHighWide,0.5,0.25,0.03,0.00794328234724281,0,0.47490299899982347
87,444,FarLowNarrow,0.1,0.15,0.2,0.015848931924611127,1,0.42217299500043737
87,445,FarLowNarrow,0.1,0.15,0.2,0.012589254117941666,0,0.6439014660008979
87,446,FarHighWide,0.5,0.25,0.03,0.009999999999999995,1,0.4583601300000737
87,447,FarHighWide,0.5,0.25,0.03,0.00794328234724281,1,0.4244936740014964
87,448,FarLowWide,0.03,0.25,0.5,0.015848931924611127,1,0.7024500640000042
87,449,FarHighWide,0.5,0.25,0.03,0.0063095734448019285,0,0.7188620070010074
87,450,FarHighNarrow,0.2,0.15,0.1,0.012589254117941668,1,0.682859283999278
87,451,ThreeLinesControl,0.0,0.0,0.1,0.015848931924611127,1,0.6808832320002693
87,452,FarLowWide,0.03,0.25,0.5,0.012589254117941666,1,0.6721251059989299
87,453,ThreeLinesControl,0.0,0.0,0.1,0.012589254117941666,1,0.750557272000151
87,454,FarLowNarrow,0.1,0.15,0.2,0.015848931924611127,1,0.6526969499991537
87,455,FarLowWide,0.03,0.25,0.5,0.009999999999999995,1,0.551734189999479
87,456,FarHighNarrow,0.2,0.15,0.1,0.009999999999999997,1,0.8700071519997437
87,457,ThreeLinesControl,0.0,0.0,0.1,0.009999999999999995,0,0.888926747998994
87,458,FarLowNarrow,0.1,0.15,0.2,0.012589254117941666,1,0.8391785669991805
87,459,FarLowWide,0.03,0.25,0.5,0.00794328234724281,0,0.9650317079995148
87,460,ThreeLinesControl,0.0,0.0,0.1,0.012589254117941666,0,0.5762866860004578
87,461,FarLowNarrow,0.1,0.15,0.2,0.009999999999999995,0,0.4384952410000551
87,462,FarHighNarrow,0.2,0.15,0.1,0.007943282347242812,0,0.3085714000008011
87,463,ThreeLinesControl,0.0,0.0,0.1,0.015848931924611127,0,0.4671519010007614
87,464,ThreeLinesControl_null,0.0,0.0,0.1,0.02511886431509579,0,0.28062044699981925
87,465,FarLowWide,0.03,0.25,0.5,0.009999999999999995,0,0.5661802409995289
87,466,FarHighWide,0.5,0.25,0.03,0.00794328234724281,1,0.7105069680001179
87,467,ThreeLinesControl,0.0,0.0,0.1,0.01995262314968879,1,0.5655578020014218
87,468,FarLowNarrow_null,0.1,0.15,0.2,0.01995262314968879,1,0.48322283800007426
87,469,FarHighNarrow,0.2,0.15,0.1,0.009999999999999997,1,0.5915687730011996
87,470,Constant,0.1,0.1,0.1,0.0063095734448019285,0,0.6004759779989399
87,471,FarLowNarrow_null,0.1,0.15,0.2,0.015848931924611127,1,0.4819155410004896
87,472,FarHighWide,0.5,0.25,0.03,0.0063095734448019285,0,0.4718294300000707
87,473,ThreeLinesControl,0.0,0.0,0.1,0.015848931924611127,1,0.47013433699976304
87,474,FarHighNarrow,0.2,0.15,0.1,0.007943282347242812,1,0.4973478720003186
87,475,FarLowWide_null,0.03,0.25,0.5,0.02511886431509579,1,0.39135078099934617
87,476,FarLowNarrow,0.1,0.15,0.2,0.012589254117941666,1,0.4757472220007912
87,477,FarLowNarrow,0.1,0.15,0.2,0.009999999999999995,0,0.2897297609997622
87,478,Constant,0.1,0.1,0.1,0.00794328234724281,0,0.26411510499929136
87,479,FarLowNarrow,0.1,0.15,0.2,0.012589254117941666,1,0.3662412680005218
87,480,FarHighNarrow,0.2,0.15,0.1,0.006309573444801929,0,0.7592794870015496
87,481,ThreeLinesControl,0.0,0.0,0.1,0.012589254117941666,0,0.5883751239998674
87,482,Constant,0.1,0.1,0.1,0.009999999999999995,0,0.5691539029994601
87,483,FarHighNarrow,0.2,0.15,0.1,0.007943282347242812,0,0.4235606620004546
87,484,Constant,0.1,0.1,0.1,0.012589254117941666,0,0.4695281129988871
87,485,Constant,0.1,0.1,0.1,0.015848931924611127,1,0.5628776289995585
87,486,FarHighNarrow,0.2,0.15,0.1,0.009999999999999997,0,0.4807612920012616
87,487,ThreeLinesControl,0.0,0.0,0.1,0.015848931924611127,1,0.6799082460001955
87,488,Constant,0.1,0.1,0.1,0.012589254117941666,1,0.4141869280010724
87,489,FarHighNarrow,0.2,0.15,0.1,0.012589254117941668,1,0.36683822499981034
87,490,FarHighNarrow,0.2,0.15,0.1,0.009999999999999997,0,0.5706252569998469
87,491,FarHighWide,0.5,0.25,0.03,0.00794328234724281,0,0.4267348520006635
87,492,FarLowWide,0.03,0.25,0.5,0.012589254117941666,0,0.44941410399951565
87,493,FarHighNarrow,0.2,0.15,0.1,0.012589254117941668,0,0.3547269539994886
87,494,FarHighWide,0.5,0.25,0.03,0.009999999999999995,1,0.40099596199979715
87,495,FarLowWide_null,0.03,0.25,0.5,0.01995262314968879,1,0.4682688930006407
87,496,FarLowWide,0.03,0.25,0.5,0.015848931924611127,1,0.49843761599913705
87,497,FarLowNarrow,0.1,0.15,0.2,0.009999999999999995,0,0.7205647850005334
87,498,FarHighWide,0.5,0.25,0.03,0.00794328234724281,1,0.525280345000283
87,499,FarHighWide,0.5,0.25,0.03,0.0063095734448019285,1,0.4745782539994252
87,500,ThreeLinesControl,0.0,0.0,0.1,0.012589254117941666,0,0.4410429600011412
87,501,FarLowNarrow,0.1,0.15,0.2,0.012589254117941666,1,0.48677224600032787
87,502,FarLowNarrow,0.1,0.15,0.2,0.009999999999999995,1,0.621080097000231
87,503,ThreeLinesControl,0.0,0.0,0.1,0.015848931924611127,1,0.42746440900009475
87,504,FarLowWide,0.03,0.25,0.5,0.012589254117941666,0,0.48939927100036584
87,505,FarHighWide_null,0.5,0.25,0.03,0.01995262314968879,0,0.6175297200006753
87,506,FarLowWide_null,0.03,0.25,0.5,0.015848931924611127,1,0.4367248720009229
87,507,FarLowNarrow,0.1,0.15,0.2,0.00794328234724281,0,0.3812303699996846
87,508,FarHighWide,0.5,0.25,0.03,0.005011872336272719,0,0.5619660230004229
87,509,FarHighNarrow,0.2,0.15,0.1,0.01584893192461113,1,0.4923163369985559
87,510,FarHighWide,0.5,0.25,0.03,0.0063095734448019285,0,0.47548507999999856
87,511,FarLowWide,0.03,0.25,0.5,0.015848931924611127,0,0.49468874699959997
87,512,FarHighNarrow,0.2,0.15,0.1,0.012589254117941668,0,0.5559330910000426
87,513,FarLowWide,0.03,0.25,0.5,0.01995262314968879,0,0.6099346279988822
87,514,FarLowWide,0.03,0.25,0.5,0.025118864315095794,1,0.49457174400049553
87,515,FarLowWide,0.03,0.25,0.5,0.01995262314968879,1,0.4532285219993355
87,516,ThreeLinesControl,0.0,0.0,0.1,0.012589254117941666,1,0.4916361320010765
87,517,Constant_null,0.1,0.1,0.1,0.031622776601683784,1,0.601420856999539
87,518,FarHighNarrow,0.2,0.15,0.1,0.01584893192461113,1,0.5757811009989382
87,519,FarLowNarrow,0.1,0.15,0.2,0.009999999999999995,0,0.5966266970008292
87,520,ThreeLinesControl,0.0,0.0,0.1,0.009999999999999995,0,0.6440128240010381
87,521,FarHighNarrow,0.2,0.15,0.1,0.012589254117941668,1,0.5861102029994072
87,522,Constant,0.1,0.1,0.1,0.009999999999999995,1,0.359330998000587
87,523,Constant,0.1,0.1,0.1,0.00794328234724281,1,0.4615583240010892
87,524,FarLowNarrow,0.1,0.15,0.2,0.012589254117941666,1,0.4436259930007509
87,525,Constant,0.1,0.1,0.1,0.0063095734448019285,1,0.40668922899931204
87,526,ThreeLinesControl,0.0,0.0,0.1,0.012589254117941666,0,0.45258407999972405
87,527,FarLowNarrow_null,0.1,0.15,0.2,0.012589254117941666,1,0.44311204599944176
87,528,Constant,0.1,0.1,0.1,0.005011872336272719,0,0.398179824998806
87,529,FarHighWide,0.5,0.25,0.03,0.00794328234724281,1,0.43645086499964236
87,530,ThreeLinesControl,0.0,0.0,0.1,0.015848931924611127,1,0.46528574699914316
87,531,FarHighWide,0.5,0.25,0.03,0.0063095734448019285,0,0.5753995699997176
87,532,FarHighWide,0.5,0.25,0.03,0.00794328234724281,0,0.6537969189994328
87,533,FarLowWide,0.03,0.25,0.5,0.015848931924611127,1,0.41869746900010796
87,534,FarHighNarrow,0.2,0.15,0.1,0.009999999999999997,1,0.27296225700047216
87,535,ThreeLinesControl,0.0,0.0,0.1,0.012589254117941666,0,0.4388640329998452
87,536,FarHighNarrow,0.2,0.15,0.1,0.007943282347242812,1,0.21384113500062085
87,537,FarHighWide,0.5,0.25,0.03,0.009999999999999995,1,0.18051087399908283
87,538,ThreeLinesControl,0.0,0.0,0.1,0.015848931924611127,1,0.41180731900021783
87,539,FarHighNarrow,0.2,0.15,0.1,0.006309573444801929,0,0.4878301780008769
87,540,FarHighWide,0.5,0.25,0.03,0.00794328234724281,1,0.6850197669991758
87,541,FarLowWide,0.03,0.25,0.5,0.012589254117941666,1,0.7922572509996826
87,542,FarLowNarrow,0.1,0.15,0.2,0.009999999999999995,0,0.510213253000984
87,543,Constant,0.1,0.1,0.1,0.0063095734448019285,0,0.21252347100016777
87,544,Constant,0.1,0.1,0.1,0.00794328234724281,1,0.44748608299960324
87,545,FarHighNarrow,0.2,0.15,0.1,0.007943282347242812,1,0.5337528700001712
87,546,FarHighNarrow,0.2,0.15,0.1,0.006309573444801929,0,0.507800829000189
87,547,FarLowWide,0.03,0.25,0.5,0.009999999999999995,0,0.2968579360003787
87,548,FarHighWide,0.5,0.25,0.03,0.0063095734448019285,0,0.6948929409991251
87,549,FarLowNarrow,0.1,0.15,0.2,0.012589254117941666,0,0.5009005000010802
87,550,FarHighNarrow,0.2,0.15,0.1,0.007943282347242812,1,0.5551556989994424
87,551,ThreeLinesControl,0.0,0.0,0.1,0.012589254117941666,0,0.6815373299996281
87,552,FarLowWide,0.03,0.25,0.5,0.012589254117941666,0,0.3997674120000738
87,553,FarLowNarrow,0.1,0.15,0.2,0.015848931924611127,1,0.438461391000601
87,554,FarLowNarrow,0.1,0.15,0.2,0.012589254117941666,1,0.5888749890000327
87,555,ThreeLinesControl_null,0.0,0.0,0.1,0.031622776601683784,1,0.4328844219999155
87,556,Constant,0.1,0.1,0.1,0.0063095734448019285,0,0.45507857099983084
87,557,FarHighNarrow,0.2,0.15,0.1,0.006309573444801929,0,0.405249241999627
87,558,FarHighWide,0.5,0.25,0.03,0.00794328234724281,0,0.3926678230000107
87,559,FarLowWide,0.03,0.25,0.5,0.015848931924611127,1,0.27042449199871044
87,560,FarHighNarrow,0.2,0.15,0.1,0.007943282347242812,0,0.2086196389991528
87,561,FarHighNarrow,0.2,0.15,0.1,0.009999999999999997,0,0.47117327799969644
87,562,FarHighNarrow,0.2,0.15,0.1,0.012589254117941668,0,0.42185350399995514
87,563,FarHighWide,0.5,0.25,0.03,0.009999999999999995,0,0.3875356330008799
87,564,FarLowNarrow,0.1,0.15,0.2,0.009999999999999995,0,0.4655012830007763
87,565,FarHighNarrow,0.2,0.15,0.1,0.01584893192461113,1,0.24774116600019624
87,566,ThreeLinesControl,0.0,0.0,0.1,0.015848931924611127,1,0.27664386899959936
87,567,Constant,0.1,0.1,0.1,0.00794328234724281,1,0.3071515649990033
87,568,FarHighWide,0.5,0.25,0.03,0.012589254117941666,1,0.37024273999850266
87,569,FarLowWide,0.03,0.25,0.5,0.012589254117941666,1,0.5520625080007449
87,570,FarHighNarrow,0.2,0.15,0.1,0.012589254117941668,1,0.7030909599998267
87,571,Constant,0.1,0.1,0.1,0.0063095734448019285,0,0.5946510120011226
87,572,FarLowNarrow,0.1,0.15,0.2,0.012589254117941666,0,0.37675272799970116
87,573,ThreeLinesControl,0.0,0.0,0.1,0.012589254117941666,0,0.3895907440000883
87,574,FarHighWide,0.5,0.25,0.03,0.009999999999999995,0,0.48895084600007976
87,575,FarHighWide,0.5,0.25,0.03,0.012589254117941666,0,0.4151479169995582
87,576,ThreeLinesControl,0.0,0.0,0.1,0.015848931924611127,1,0.5619930190005107
87,577,FarHighNarrow,0.2,0.15,0.1,0.009999999999999997,0,0.5283804340015195
87,578,Constant,0.1,0.1,0.1,0.00794328234724281,1,0.35056058800000756
87,579,FarHighWide,0.5,0.25,0.03,0.015848931924611127,1,0.18055445199934184
87,580,FarLowWide,0.03,0.25,0.5,0.009999999999999995,0,0.49905435199980275
87,581,FarLowWide,0.03,0.25,0.5,0.012589254117941666,0,0.4571486700006062
87,582,FarLowNarrow,0.1,0.15,0.2,0.015848931924611127,1,0.4063012480000907
87,583,FarLowNarrow,0.1,0.15,0.2,0.012589254117941666,1,0.41197281499989913
87,584,FarHighWide_null,0.5,0.25,0.03,0.025118864315095794,1,0.37054797699966
87,585,Constant,0.1,0.1,0.1,0.0063095734448019285,0,0.6016492920007295
87,586,FarHighNarrow,0.2,0.15,0.1,0.012589254117941668,1,0.5203815870008839
87,587,Constant,0.1,0.1,0.1,0.00794328234724281,1,0.49878105800053163
87,588,ThreeLinesControl,0.0,0.0,0.1,0.012589254117941666,0,0.49692749499990896
87,589,FarLowWide,0.03,0.25,0.5,0.015848931924611127,0,0.5109787870005675
87,590,Constant,0.1,0.1,0.1,0.0063095734448019285,0,0.46622224299972004
87,591,FarLowNarrow,0.1,0.15,0.2,0.009999999999999995,1,0.4805886989997816
87,592,FarHighNarrow,0.2,0.15,0.1,0.009999999999999997,1,0.44670518900056777
87,593,FarLowWide,0.03,0.25,0.5,0.01995262314968879,1,0.5211913399998593
87,594,FarHighNarrow,0.2,0.15,0.1,0.007943282347242812,1,0.6156957219991455
87,595,ThreeLinesControl,0.0,0.0,0.1,0.015848931924611127,1,0.5581948010003543
87,596,ThreeLinesControl,0.0,0.0,0.1,0.012589254117941666,1,0.580095743000129
87,597,FarLowNarrow,0.1,0.15,0.2,0.00794328234724281,1,0.5373934359995474
87,598,FarHighWide,0.5,0.25,0.03,0.012589254117941666,1,0.3516544409994822
87,599,FarLowNarrow,0.1,0.15,0.2,0.0063095734448019285,0,0.38172831699921517
87,600,FarLowWide,0.03,0.25,0.5,0.015848931924611127,0,0.9432557629988878
87,601,FarHighNarrow,0.2,0.15,0.1,0.006309573444801929,0,0.5736589260013716
87,602,FarLowWide,0.03,0.25,0.5,0.01995262314968879,0,0.29870538000068336
87,603,FarHighWide,0.5,0.25,0.03,0.009999999999999995,0,0.4489670130005834
87,604,FarLowNarrow,0.1,0.15,0.2,0.00794328234724281,1,0.535144837000189
87,605,FarHighNarrow,0.2,0.15,0.1,0.007943282347242812,0,0.4614660000006552
87,606,ThreeLinesControl,0.0,0.0,0.1,0.009999999999999995,0,0.40389452000090387
87,607,FarHighNarrow,0.2,0.15,0.1,0.009999999999999997,0,0.41039043700038746
87,608,FarLowWide,0.03,0.25,0.5,0.025118864315095794,0,0.5933484279994445
87,609,FarHighNarrow,0.2,0.15,0.1,0.012589254117941668,0,0.5239357430000382
87,610,FarHighNarrow,0.2,0.15,0.1,0.01584893192461113,1,0.4100659880004969
87,611,FarLowNarrow,0.1,0.15,0.2,0.0063095734448019285,0,0.4239715619987692
87,612,FarHighNarrow,0.2,0.15,0.1,0.012589254117941668,0,0.46735512300074333
87,613,FarHighWide,0.5,0.25,0.03,0.012589254117941666,1,0.5854303899996012
87,614,FarHighWide,0.5,0.25,0.03,0.009999999999999995,1,0.5256944580014533
87,615,FarHighNarrow,0.2,0.15,0.1,0.01584893192461113,1,0.5473959930004639
87,616,FarLowNarrow,0.1,0.15,0.2,0.00794328234724281,1,0.5447122730001865
87,617,FarLowWide,0.03,0.25,0.5,0.031622776601683784,1,0.5107197689994791
87,618,FarLowNarrow,0.1,0.15,0.2,0.0063095734448019285,0,0.5569017589987197
87,619,FarHighNarrow,0.2,0.15,0.1,0.012589254117941668,1,0.5156064590009919
87,620,FarHighWide,0.5,0.25,0.03,0.00794328234724281,0,0.7293388710004365
87,621,FarHighNarrow,0.2,0.15,0.1,0.009999999999999997,0,0.600777306000964
87,622,FarHighNarrow,0.2,0.15,0.1,0.012589254117941668,1,0.6387738720004563
87,623,FarHighNarrow,0.2,0.15,0.1,0.009999999999999997,1,0.7248551530010445
87,624,FarLowWide,0.03,0.25,0.5,0.02511886431509579,1,0.5952403629999026
87,625,FarHighWide,0.5,0.25,0.03,0.009999999999999995,1,0.5261373260000255
87,626,FarHighNarrow,0.2,0.15,0.1,0.007943282347242812,1,0.4522477229984361
87,627,Constant,0.1,0.1,0.1,0.00794328234724281,1,0.5465245510004024
87,628,ThreeLinesControl,0.0,0.0,0.1,0.012589254117941666,0,0.5577109719997679
87,629,Constant,0.1,0.1,0.1,0.0063095734448019285,0,0.43582063900066714
87,630,FarHighNarrow,0.2,0.15,0.1,0.006309573444801929,0,0.4502764099997876
87,631,FarLowNarrow,0.1,0.15,0.2,0.00794328234724281,1,0.6621819529991626
87,632,ThreeLinesControl_null,0.0,0.0,0.1,0.02511886431509579,1,0.5565417939997133
87,633,Constant_null,0.1,0.1,0.1,0.02511886431509579,1,0.5058726469997055
87,634,Constant,0.1,0.1,0.1,0.00794328234724281,0,0.5272454980004113
87,635,FarLowWide,0.03,0.25,0.5,0.01995262314968879,1,0.4532375069993577
87,636,FarHighWide,0.5,0.25,0.03,0.00794328234724281,0,1.006468090999988
87,637,FarLowWide,0.03,0.25,0.5,0.015848931924611127,0,0.7150646379996033
87,638,FarHighWide_null,0.5,0.25,0.03,0.01995262314968879,1,0.4569378209998831
87,639,ThreeLinesControl,0.0,0.0,0.1,0.015848931924611127,1,0.5844748609997623
87,640,FarHighWide,0.5,0.25,0.03,0.009999999999999995,1,0.532576292000158
87,641,FarHighNarrow_null,0.2,0.15,0.1,0.05011872336272722,1,0.4832613279995712
87,642,FarHighNarrow,0.2,0.15,0.1,0.007943282347242812,1,0.31065484799910337
87,643,FarLowWide,0.03,0.25,0.5,0.01995262314968879,1,0.4523768669987476
87,644,FarHighNarrow_null,0.2,0.15,0.1,0.03981071705534971,1,0.4721489140010817
87,645,ThreeLinesControl,0.0,0.0,0.1,0.012589254117941666,0,0.461930953000774
87,646,FarLowNarrow,0.1,0.15,0.2,0.0063095734448019285,0,0.5001314619985351
87,647,ThreeLinesControl,0.0,0.0,0.1,0.015848931924611127,1,0.4642962270008866
87,648,ThreeLinesControl,0.0,0.0,0.1,0.012589254117941666,0,0.6465342179999425
87,649,ThreeLinesControl,0.0,0.0,0.1,0.015848931924611127,1,0.37252357000033953
87,650,FarHighWide,0.5,0.25,0.03,0.00794328234724281,0,0.4430970449993765
87,651,ThreeLinesControl,0.0,0.0,0.1,0.012589254117941666,1,0.44054066499847977
87,652,Constant,0.1,0.1,0.1,0.009999999999999995,1,0.4083979589995579
87,653,FarHighNarrow_null,0.2,0.15,0.1,0.031622776601683784,1,0.4874049190002552
87,654,FarLowWide,0.03,0.25,0.5,0.015848931924611127,1,0.5553285429996322
87,655,FarLowNarrow,0.1,0.15,0.2,0.00794328234724281,1,0.6747088890006125
87,656,FarLowNarrow,0.1,0.15,0.2,0.0063095734448019285,0,0.4656164660009381
87,657,FarLowWide,0.03,0.25,0.5,0.012589254117941666,0,0.3175929909994011
87,658,FarHighWide,0.5,0.25,0.03,0.009999999999999995,1,0.4650973640000302
87,659,FarHighNarrow,0.2,0.15,0.1,0.006309573444801929,1,0.7674720639988664
87,660,ThreeLinesControl,0.0,0.0,0.1,0.009999999999999995,0,0.4690816829988762
87,661,FarHighNarrow,0.2,0.15,0.1,0.00501187233627272,0,0.43289198000093165
87,662,ThreeLinesControl,0.0,0.0,0.1,0.012589254117941666,0,0.42233159099851036
87,663,FarHighNarrow,0.2,0.15,0.1,0.006309573444801929,0,0.5070311210001819
87,664,FarHighWide,0.5,0.25,0.03,0.00794328234724281,1,0.5527766229988629
87,665,FarLowNarrow,0.1,0.15,0.2,0.00794328234724281,1,0.6549669120013277
87,666,ThreeLinesControl_null,0.0,0.0,0.1,0.01995262314968879,1,0.4451706899999408
87,667,FarLowNarrow_null,0.1,0.15,0.2,0.009999999999999995,1,0.37932068800000707
87,668,Constant,0.1,0.1,0.1,0.00794328234724281,0,0.42574320399944554
87,669,Constant,0.1,0.1,0.1,0.009999999999999995,1,0.5438365609988978
87,670,Constant,0.1,0.1,0.1,0.00794328234724281,1,0.5676621639995574
87,671,FarHighNarrow_null,0.2,0.15,0.1,0.02511886431509579,1,0.5709704099990631
87,672,ThreeLinesControl,0.0,0.0,0.1,0.015848931924611127,0,1.0574716689989145
87,673,Constant,0.1,0.1,0.1,0.0063095734448019285,0,0.9281676820010034
87,674,Constant,0.1,0.1,0.1,0.00794328234724281,1,0.5552622459999839
87,675,Constant,0.1,0.1,0.1,0.0063095734448019285,1,0.5297064469996258
87,676,FarHighWide,0.5,0.25,0.03,0.0063095734448019285,0,0.5025889290009218
87,677,Constant,0.1,0.1,0.1,0.005011872336272719,0,0.37897236600110773
87,678,FarHighWide,0.5,0.25,0.03,0.00794328234724281,0,0.5357348919987999
87,679,FarHighWide,0.5,0.25,0.03,0.009999999999999995,0,0.4772193749995495
87,680,FarLowNarrow,0.1,0.15,0.2,0.0063095734448019285,0,0.3233362000009947
87,681,Constant,0.1,0.1,0.1,0.0063095734448019285,0,0.5050707880000118
87,682,FarHighNarrow,0.2,0.15,0.1,0.007943282347242812,1,0.7677607820005505
87,683,FarLowNarrow,0.1,0.15,0.2,0.00794328234724281,1,0.7327057009988494
87,684,FarHighNarrow,0.2,0.15,0.1,0.006309573444801929,1,0.3945022139996581
87,685,FarLowNarrow_null,0.1,0.15,0.2,0.00794328234724281,1,0.5237302540008386
87,686,FarLowWide,0.03,0.25,0.5,0.015848931924611127,1,0.5378198119997251
87,687,ThreeLinesControl,0.0,0.0,0.1,0.01995262314968879,1,0.5282452579995152
87,688,FarHighNarrow,0.2,0.15,0.1,0.00501187233627272,1,0.5166000610006449
87,689,FarHighWide_null,0.5,0.25,0.03,0.015848931924611127,1,0.738373219001005
87,690,FarLowWide,0.03,0.25,0.5,0.012589254117941666,0,0.6379547240012471
87,691,ThreeLinesControl,0.0,0.0,0.1,0.015848931924611127,1,0.6120205110000825
87,692,ThreeLinesControl_null,0.0,0.0,0.1,0.015848931924611127,0,0.3621082319987181
87,693,FarHighNarrow,0.2,0.15,0.1,0.00398107170553497,0,0.4610113899998396
87,694,FarLowWide,0.03,0.25,0.5,0.015848931924611127,1,0.5636546539990377
87,695,Constant,0.1,0.1,0.1,0.00794328234724281,1,0.4894319289996929
87,696,Constant_null,0.1,0.1,0.1,0.01995262314968879,1,0.5107154910001555
87,697,FarLowWide,0.03,0.25,0.5,0.012589254117941666,0,0.46884471900011704
87,698,FarLowNarrow,0.1,0.15,0.2,0.0063095734448019285,0,0.5145433130001038
87,699,FarLowNarrow,0.1,0.15,0.2,0.00794328234724281,0,0.5203380570001173
87,700,ThreeLinesControl,0.0,0.0,0.1,0.012589254117941666,1,0.5343620800013014
87,701,FarHighNarrow,0.2,0.15,0.1,0.00501187233627272,0,0.332474478000222
87,702,FarLowWide,0.03,0.25,0.5,0.015848931924611127,1,0.467424447000667
87,703,FarHighWide,0.5,0.25,0.03,0.012589254117941666,0,0.5151519539995206
87,704,FarHighNarrow,0.2,0.15,0.1,0.006309573444801929,0,0.3028643270008615
87,705,Constant,0.1,0.1,0.1,0.0063095734448019285,0,0.2606574829987949
87,706,ThreeLinesControl,0.0,0.0,0.1,0.009999999999999995,0,0.35514735499964445
87,707,ThreeLinesControl,0.0,0.0,0.1,0.012589254117941666,0,0.2864894410013221
87,708,FarHighNarrow,0.2,0.15,0.1,0.007943282347242812,1,0.4763703059998079
87,709,Constant,0.1,0.1,0.1,0.00794328234724281,1,0.6155356640010723
87,710,FarLowNarrow,0.1,0.15,0.2,0.009999999999999995,1,0.7173547940001299
87,711,FarLowNarrow,0.1,0.15,0.2,0.00794328234724281,0,0.6349272890001885
87,712,Constant,0.1,0.1,0.1,0.0063095734448019285,0,0.30504558900065604
87,713,FarHighNarrow,0.2,0.15,0.1,0.006309573444801929,0,0.24624358000073698
87,714,FarHighNarrow,0.2,0.15,0.1,0.007943282347242812,1,0.42822807599986845
87,715,FarHighNarrow,0.2,0.15,0.1,0.006309573444801929,1,0.682863832998919
87,716,FarHighWide,0.5,0.25,0.03,0.015848931924611127,1,0.6486625420002383
87,717,FarHighWide,0.5,0.25,0.03,0.012589254117941666,0,0.6237472539996816
87,718,FarHighNarrow,0.2,0.15,0.1,0.00501187233627272,0,0.4696927629993297
87,719,FarLowWide,0.03,0.25,0.5,0.012589254117941666,0,0.5163675929998135
87,720,FarLowWide,0.03,0.25,0.5,0.015848931924611127,0,0.8613414339997689
87,721,FarHighWide,0.5,0.25,0.03,0.015848931924611127,0,0.6656236750004609
87,722,FarHighWide,0.5,0.25,0.03,0.01995262314968879,1,0.45454370900006325
87,723,FarHighWide,0.5,0.25,0.03,0.015848931924611127,0,0.3888781219993689
87,724,FarLowWide,0.03,0.25,0.5,0.01995262314968879,1,0.47229148899896245
87,725,FarHighWide,0.5,0.25,0.03,0.01995262314968879,1,0.3182387139986531
87,726,FarLowNarrow,0.1,0.15,0.2,0.009999999999999995,0,0.4682418129996222
87,727,FarLowNarrow_null,0.1,0.15,0.2,0.0063095734448019285,1,0.4551770790003502
87,728,Constant,0.1,0.1,0.1,0.00794328234724281,0,0.3413323490003677
87,729,FarHighWide,0.5,0.25,0.03,0.015848931924611127,1,0.39427951899961045
87,730,FarLowWide,0.03,0.25,0.5,0.015848931924611127,1,0.9449284999991505
87,731,Constant,0.1,0.1,0.1,0.009999999999999995,0,0.6547349699994811
87,732,ThreeLinesControl,0.0,0.0,0.1,0.015848931924611127,1,0.5175131959986174
87,733,FarLowWide,0.03,0.25,0.5,0.012589254117941666,0,0.45955371700074465
87,734,FarLowNarrow_null,0.1,0.15,0.2,0.005011872336272719,1,0.2571716059992468
87,735,ThreeLinesControl,0.0,0.0,0.1,0.012589254117941666,0,0.26339998900039063
87,736,FarLowWide,0.03,0.25,0.5,0.015848931924611127,0,0.5103816840000945
87,737,FarHighNarrow,0.2,0.15,0.1,0.006309573444801929,1,0.28497234399947047
87,738,FarLowWide,0.03,0.25,0.5,0.01995262314968879,1,0.5132381200000964
87,739,FarLowWide_null,0.03,0.25,0.5,0.012589254117941666,1,0.5101791870001762
87,740,FarHighNarrow,0.2,0.15,0.1,0.00501187233627272,0,1.0986872579996998
87,741,FarLowNarrow_null,0.1,0.15,0.2,0.00398107170553497,1,0.4964783270006592
87,742,FarLowWide,0.03,0.25,0.5,0.015848931924611127,1,0.5659301169998798
87,743,Constant,0.1,0.1,0.1,0.012589254117941666,1,0.6165096460008499
87,744,FarHighWide,0.5,0.25,0.03,0.012589254117941666,1,0.6709864809999999
87,745,ThreeLinesControl,0.0,0.0,0.1,0.015848931924611127,1,0.7970397710014367
87,746,Constant_null,0.1,0.1,0.1,0.015848931924611127,1,0.5954253020008764
87,747,FarHighNarrow,0.2,0.15,0.1,0.006309573444801929,0,0.5697246080017067
87,748,FarLowWide,0.03,0.25,0.5,0.012589254117941666,0,0.5035055130010733
87,749,FarLowWide_null,0.03,0.25,0.5,0.009999999999999995,1,0.628641974999482
87,750,FarHighWide,0.5,0.25,0.03,0.009999999999999995,1,0.6747276779988169
87,751,ThreeLinesControl,0.0,0.0,0.1,0.012589254117941666,1,0.5127221589991677
87,752,ThreeLinesControl,0.0,0.0,0.1,0.009999999999999995,1,0.424338071999955
87,753,FarLowWide,0.03,0.25,0.5,0.015848931924611127,1,0.5347215029996732
87,754,FarLowNarrow,0.1,0.15,0.2,0.012589254117941666,1,0.5134067259987205
87,755,FarHighWide,0.5,0.25,0.03,0.00794328234724281,1,0.5836351620000642
87,756,FarHighWide,0.5,0.25,0.03,0.0063095734448019285,0,0.6425426510013494
87,757,ThreeLinesControl,0.0,0.0,0.1,0.00794328234724281,0,0.6248756920012966
87,758,FarLowWide,0.03,0.25,0.5,0.012589254117941666,0,0.6151192519992037
87,759,FarLowWide,0.03,0.25,0.5,0.015848931924611127,0,0.626466473999244
87,760,FarHighNarrow,0.2,0.15,0.1,0.007943282347242812,0,0.8963526679999632
87,761,FarHighWide,0.5,0.25,0.03,0.00794328234724281,0,0.8063486430000921
87,762,FarHighWide_null,0.5,0.25,0.03,0.012589254117941666,1,1.0129002049998235
87,763,FarLowWide,0.03,0.25,0.5,0.01995262314968879,1,0.8984975580005994
87,764,FarLowNarrow,0.1,0.15,0.2,0.009999999999999995,0,0.7449299030013208
87,765,FarLowNarrow,0.1,0.15,0.2,0.012589254117941666,1,0.558341959000245
87,766,FarLowNarrow,0.1,0.15,0.2,0.009999999999999995,0,0.556437384999299
87,767,FarHighNarrow,0.2,0.15,0.1,0.009999999999999997,1,0.5231858309998643
87,768,FarLowNarrow,0.1,0.15,0.2,0.012589254117941666,1,0.6420492399993236
87,769,FarLowWide,0.03,0.25,0.5,0.015848931924611127,1,0.7286169700000755
87,770,FarHighNarrow,0.2,0.15,0.1,0.007943282347242812,1,0.5159256839997397
87,771,Constant,0.1,0.1,0.1,0.009999999999999995,1,0.48158541500015417
87,772,FarHighWide,0.5,0.25,0.03,0.009999999999999995,1,0.9752564520003943
87,773,FarLowWide,0.03,0.25,0.5,0.012589254117941666,0,0.8514395230013179
87,774,FarLowNarrow_null,0.1,0.15,0.2,0.0031622776601683772,1,0.688292522001575
87,775,FarLowWide,0.03,0.25,0.5,0.015848931924611127,1,0.6206489840005815
87,776,FarHighNarrow,0.2,0.15,0.1,0.006309573444801929,0,1.2349257910027518
87,777,FarHighWide,0.5,0.25,0.03,0.00794328234724281,1,0.8728440849990875
87,778,FarLowWide,0.03,0.25,0.5,0.012589254117941666,0,0.5339930600021034
87,779,Constant,0.1,0.1,0.1,0.00794328234724281,1,0.5643319670016353
87,780,ThreeLinesControl,0.0,0.0,0.1,0.009999999999999995,0,0.6984971839992795
87,781,Constant,0.1,0.1,0.1,0.0063095734448019285,0,0.688598896998883
87,782,FarHighNarrow,0.2,0.15,0.1,0.007943282347242812,1,0.5824296350001532
87,783,ThreeLinesControl,0.0,0.0,0.1,0.012589254117941666,1,0.468568452000909
87,784,FarHighWide_null,0.5,0.25,0.03,0.009999999999999995,0,0.6507601749981404
87,785,ThreeLinesControl,0.0,0.0,0.1,0.009999999999999995,0,0.5299603069979639
87,786,FarHighWide,0.5,0.25,0.03,0.0063095734448019285,1,0.533232236000913
87,787,FarHighNarrow,0.2,0.15,0.1,0.006309573444801929,1,0.6661523809998471
87,788,ThreeLinesControl,0.0,0.0,0.1,0.012589254117941666,0,0.5524286969994137
87,789,FarHighNarrow,0.2,0.15,0.1,0.00501187233627272,0,0.5794989940004598
87,790,FarHighWide,0.5,0.25,0.03,0.005011872336272719,0,0.6496298919992114
87,791,FarLowWide,0.03,0.25,0.5,0.015848931924611127,0,0.8958899429999292
87,792,FarHighWide,0.5,0.25,0.03,0.0063095734448019285,1,0.5637716669989459
87,793,Constant,0.1,0.1,0.1,0.00794328234724281,1,0.634443625996937
87,794,FarHighNarrow,0.2,0.15,0.1,0.006309573444801929,1,0.57574028900126
87,795,FarLowNarrow,0.1,0.15,0.2,0.009999999999999995,0,99
87,796,FarHighNarrow,0.2,0.15,0.1,0.00501187233627272,0,0.4999922009992588
87,797,FarHighWide,0.5,0.25,0.03,0.005011872336272719,0,0.6097511170009966
87,798,FarHighNarrow,0.2,0.15,0.1,0.006309573444801929,0,0.6242104350021691
87,799,FarHighNarrow,0.2,0.15,0.1,0.007943282347242812,0,99
87,800,FarLowNarrow,0.1,0.15,0.2,0.012589254117941666,1,0.756478359002358
87,801,FarLowWide,0.03,0.25,0.5,0.01995262314968879,1,0.6350562700026785
87,802,FarHighNarrow,0.2,0.15,0.1,0.009999999999999997,1,0.4812694050015125
87,803,FarHighWide,0.5,0.25,0.03,0.0063095734448019285,0,0.5408780770012527
87,804,FarHighNarrow_null,0.2,0.15,0.1,0.01995262314968879,1,0.5230758780016913
87,805,FarHighNarrow,0.2,0.15,0.1,0.007943282347242812,1,0.5738223650005239
87,806,FarLowWide_null,0.03,0.25,0.5,0.00794328234724281,0,0.7393263679987285
87,807,ThreeLinesControl,0.0,0.0,0.1,0.015848931924611127,0,0.7132758840016322
87,808,Constant_null,0.1,0.1,0.1,0.012589254117941666,1,0.48590190799950506
87,809,Constant,0.1,0.1,0.1,0.0063095734448019285,0,0.4835016809993249
87,810,FarHighWide,0.5,0.25,0.03,0.00794328234724281,1,1.1857105960007175
87,811,FarLowWide,0.03,0.25,0.5,0.015848931924611127,1,1.031896634001896
87,812,FarHighWide,0.5,0.25,0.03,0.0063095734448019285,0,0.7903871449998405
87,813,FarHighWide,0.5,0.25,0.03,0.00794328234724281,0,0.6361616940012027
87,814,Constant,0.1,0.1,0.1,0.00794328234724281,0,0.7014696699989145
87,815,Constant_null,0.1,0.1,0.1,0.009999999999999995,1,0.729535959999339
87,816,FarHighNarrow,0.2,0.15,0.1,0.006309573444801929,0,0.7529597579996334
87,817,FarHighNarrow,0.2,0.15,0.1,0.007943282347242812,1,0.6155976770023699
87,818,Constant,0.1,0.1,0.1,0.009999999999999995,1,0.8699384419996932
87,819,FarLowWide,0.03,0.25,0.5,0.012589254117941666,0,0.7521364439999161
87,820,Constant,0.1,0.1,0.1,0.00794328234724281,1,0.5750523719980265
87,821,Constant,0.1,0.1,0.1,0.0063095734448019285,0,0.8682130339984724
87,822,FarHighWide,0.5,0.25,0.03,0.009999999999999995,1,0.7436854309999035
87,823,Constant,0.1,0.1,0.1,0.00794328234724281,0,0.4535381690002396
87,824,FarLowNarrow,0.1,0.15,0.2,0.009999999999999995,1,0.2420869039997342
87,825,FarLowNarrow_null,0.1,0.15,0.2,0.002511886431509578,1,0.15962614300224232
87,826,Constant,0.1,0.1,0.1,0.009999999999999995,0,0.3743641859982745
87,827,ThreeLinesControl,0.0,0.0,0.1,0.01995262314968879,1,0.5083118109978386
87,828,Constant,0.1,0.1,0.1,0.012589254117941666,0,0.4973320139979478
87,829,Constant,0.1,0.1,0.1,0.015848931924611127,1,0.5998935759998858
87,830,FarLowNarrow,0.1,0.15,0.2,0.00794328234724281,1,0.6159081129990227
87,831,Constant,0.1,0.1,0.1,0.012589254117941666,0,99
87,832,FarLowWide,0.03,0.25,0.5,0.015848931924611127,1,0.7773896069993498
87,833,FarHighNarrow,0.2,0.15,0.1,0.006309573444801929,0,0.624118271000043
87,834,FarHighWide,0.5,0.25,0.03,0.00794328234724281,1,0.4163655929987726
87,835,ThreeLinesControl,0.0,0.0,0.1,0.015848931924611127,1,0.394518164001056
87,836,FarHighWide,0.5,0.25,0.03,0.0063095734448019285,0,0.47979733099782607
87,837,Constant,0.1,0.1,0.1,0.015848931924611127,1,0.6301703429999179
87,838,FarLowNarrow,0.1,0.15,0.2,0.0063095734448019285,0,0.7847017250023782
87,839,FarHighNarrow,0.2,0.15,0.1,0.007943282347242812,1,0.6630567819993303
87,840,FarHighWide,0.5,0.25,0.03,0.00794328234724281,0,0.7340312199994514
87,841,FarLowNarrow,0.1,0.15,0.2,0.00794328234724281,0,0.4745649379983661
87,842,ThreeLinesControl,0.0,0.0,0.1,0.012589254117941666,0,0.46700218800106086
87,843,Constant,0.1,0.1,0.1,0.012589254117941666,0,0.4868613930011634
87,844,Constant,0.1,0.1,0.1,0.015848931924611127,0,0.3307908899987524
87,845,FarHighWide,0.5,0.25,0.03,0.009999999999999995,1,0.3602691150008468
87,846,Constant,0.1,0.1,0.1,0.01995262314968879,0,0.451550411999051
87,847,FarLowNarrow,0.1,0.15,0.2,0.009999999999999995,0,0.5778303180013609
87,848,FarLowWide,0.03,0.25,0.5,0.012589254117941666,0,0.39110833599988837
87,849,ThreeLinesControl,0.0,0.0,0.1,0.015848931924611127,1,0.3328019360014878
87,850,FarLowWide,0.03,0.25,0.5,0.015848931924611127,1,0.3230144610024581
87,851,FarLowNarrow,0.1,0.15,0.2,0.012589254117941666,0,0.35315410800103564
87,852,ThreeLinesControl,0.0,0.0,0.1,0.012589254117941666,0,0.3900950040006137
87,853,FarHighWide,0.5,0.25,0.03,0.00794328234724281,1,0.3725154700005078
87,854,Constant_null,0.1,0.1,0.1,0.00794328234724281,1,0.5322658760014747
87,855,ThreeLinesControl,0.0,0.0,0.1,0.015848931924611127,0,0.7797660379983427
87,856,ThreeLinesControl,0.0,0.0,0.1,0.01995262314968879,1,0.5293472060002387
87,857,FarHighNarrow,0.2,0.15,0.1,0.006309573444801929,1,0.3100104889999784
87,858,FarLowWide_null,0.03,0.25,0.5,0.009999999999999995,0,0.48422384900186444
87,859,FarHighNarrow,0.2,0.15,0.1,0.00501187233627272,0,0.6367241540028772
87,860,FarHighNarrow,0.2,0.15,0.1,0.006309573444801929,0,0.23058760999992955
87,861,FarLowNarrow,0.1,0.15,0.2,0.015848931924611127,1,0.5488251389979268
87,862,FarLowNarrow,0.1,0.15,0.2,0.012589254117941666,0,0.6826711520006938
87,863,FarLowNarrow,0.1,0.15,0.2,0.015848931924611127,0,0.3582928430005268
87,864,FarLowNarrow,0.1,0.15,0.2,0.01995262314968879,1,0.29099842100185924
87,865,FarLowNarrow,0.1,0.15,0.2,0.015848931924611127,1,0.2563252049985749
87,866,FarLowWide,0.03,0.25,0.5,0.012589254117941666,1,0.5823588620005467
87,867,FarHighNarrow,0.2,0.15,0.1,0.007943282347242812,0,0.3963623599993298
87,868,Constant,0.1,0.1,0.1,0.025118864315095794,1,0.5307114809984341
87,869,Constant_null,0.1,0.1,0.1,0.0063095734448019285,1,0.42451122099737404
87,870,FarHighNarrow,0.2,0.15,0.1,0.009999999999999997,0,0.5426559529987571
87,871,FarLowNarrow,0.1,0.15,0.2,0.012589254117941666,0,0.7589125709964719
87,872,FarHighWide,0.5,0.25,0.03,0.0063095734448019285,0,0.9170266569999512
87,873,FarHighNarrow,0.2,0.15,0.1,0.012589254117941668,1,0.928239154000039
87,874,FarHighWide,0.5,0.25,0.03,0.00794328234724281,0,0.7356227540003601
87,875,ThreeLinesControl,0.0,0.0,0.1,0.015848931924611127,1,0.6937905519989727
87,876,FarHighWide,0.5,0.25,0.03,0.009999999999999995,1,0.5609199569989869
87,877,Constant,0.1,0.1,0.1,0.01995262314968879,0,0.4550931750018208
87,878,FarHighNarrow,0.2,0.15,0.1,0.009999999999999997,1,0.4532022080020397
87,879,FarHighNarrow,0.2,0.15,0.1,0.007943282347242812,1,0.3920547630004876
87,880,FarHighWide,0.5,0.25,0.03,0.00794328234724281,1,0.7653421579998394
87,881,ThreeLinesControl,0.0,0.0,0.1,0.012589254117941666,0,0.5156742250001116
87,882,FarLowNarrow,0.1,0.15,0.2,0.015848931924611127,0,0.38559126399923116
87,883,ThreeLinesControl,0.0,0.0,0.1,0.015848931924611127,1,0.4147386879994883
87,884,FarHighWide,0.5,0.25,0.03,0.0063095734448019285,0,0.5725449040000967
87,885,ThreeLinesControl,0.0,0.0,0.1,0.012589254117941666,0,0.38705409199974383
87,886,FarLowWide,0.03,0.25,0.5,0.009999999999999995,0,0.46550445100001525
87,887,FarHighNarrow,0.2,0.15,0.1,0.006309573444801929,0,0.4550933089994942
87,888,FarLowNarrow,0.1,0.15,0.2,0.01995262314968879,0,0.48659355800191406
87,889,FarLowNarrow,0.1,0.15,0.2,0.025118864315095794,0,0.3177347169985296
87,890,FarHighNarrow,0.2,0.15,0.1,0.007943282347242812,1,0.2816548230002809
87,891,ThreeLinesControl,0.0,0.0,0.1,0.015848931924611127,1,0.2786291669981438
87,892,FarLowNarrow,0.1,0.15,0.2,0.031622776601683784,1,0.3304574860012508
87,893,FarHighWide,0.5,0.25,0.03,0.00794328234724281,0,0.512164029001724
87,894,FarLowNarrow,0.1,0.15,0.2,0.02511886431509579,1,0.47809274199971696
87,895,Constant,0.1,0.1,0.1,0.025118864315095794,0,0.5938910939985362
87,896,ThreeLinesControl,0.0,0.0,0.1,0.012589254117941666,1,0.46382521800114773
87,897,FarHighWide_null,0.5,0.25,0.03,0.012589254117941666,0,0.7900822459996562
87,898,FarHighWide,0.5,0.25,0.03,0.009999999999999995,1,1.1307479470015096
87,899,FarHighWide,0.5,0.25,0.03,0.00794328234724281,0,1.12130154499755
87,900,FarHighNarrow,0.2,0.15,0.1,0.006309573444801929,0,0.8954653939981654
87,901,FarHighNarrow,0.2,0.15,0.1,0.007943282347242812,0,0.8374691780009016
87,902,FarLowNarrow,0.1,0.15,0.2,0.01995262314968879,1,0.7788913250005862
87,903,FarHighWide,0.5,0.25,0.03,0.009999999999999995,1,0.6091974410010152
87,904,FarLowWide,0.03,0.25,0.5,0.012589254117941666,0,0.8566058420001355
87,905,FarLowWide,0.03,0.25,0.5,0.015848931924611127,0,0.7510388539994892
87,906,ThreeLinesControl,0.0,0.0,0.1,0.009999999999999995,1,0.5952147429998149
87,907,Constant,0.1,0.1,0.1,0.031622776601683784,0,0.673543986002187
87,908,FarLowWide,0.03,0.25,0.5,0.01995262314968879,1,0.7907382449993747
87,909,FarLowWide,0.03,0.25,0.5,0.015848931924611127,1,0.5067232069995953
87,910,ThreeLinesControl,0.0,0.0,0.1,0.00794328234724281,1,0.6477915770010441
87,911,FarHighWide,0.5,0.25,0.03,0.00794328234724281,0,0.5471849200002907
87,912,ThreeLinesControl,0.0,0.0,0.1,0.0063095734448019285,0,0.3609138969986816
87,913,FarLowWide_null,0.03,0.25,0.5,0.012589254117941666,1,0.3912003930017818
87,914,FarHighNarrow_null,0.2,0.15,0.1,0.015848931924611127,1,0.38990536100027384
87,915,FarLowNarrow,0.1,0.15,0.2,0.015848931924611127,1,0.6032786680007121
87,916,FarLowWide_null,0.03,0.25,0.5,0.009999999999999995,1,0.3768416330021864
87,917,FarHighNarrow,0.2,0.15,0.1,0.009999999999999997,0,0.47065578299952904
87,918,FarHighWide,0.5,0.25,0.03,0.009999999999999995,0,0.38884316199983004
87,919,FarLowNarrow,0.1,0.15,0.2,0.012589254117941666,0,0.47634403099800693
87,920,FarLowNarrow,0.1,0.15,0.2,0.015848931924611127,0,0.25817059600012726
87,921,FarLowWide_null,0.03,0.25,0.5,0.00794328234724281,1,0.3210779260007257
87,922,FarLowNarrow,0.1,0.15,0.2,0.01995262314968879,1,0.4447177090005425
87,923,ThreeLinesControl,0.0,0.0,0.1,0.00794328234724281,0,0.26573342400297406
87,924,FarLowNarrow,0.1,0.15,0.2,0.015848931924611127,1,0.4795549899972684
87,925,FarHighWide,0.5,0.25,0.03,0.012589254117941666,1,0.5132830959992134
87,926,FarLowWide,0.03,0.25,0.5,0.012589254117941666,1,0.487059238999791
87,927,FarLowNarrow,0.1,0.15,0.2,0.012589254117941666,0,0.5060181019980519
87,928,FarLowNarrow,0.1,0.15,0.2,0.015848931924611127,1,0.40838508600063506
87,929,FarHighNarrow,0.2,0.15,0.1,0.012589254117941668,1,0.4225420069997199
87,930,FarHighNarrow,0.2,0.15,0.1,0.009999999999999997,0,0.4448084920004476
87,931,FarHighNarrow,0.2,0.15,0.1,0.012589254117941668,0,0.28273800399983884
87,932,FarLowNarrow,0.1,0.15,0.2,0.012589254117941666,0,0.4802254759997595
87,933,ThreeLinesControl,0.0,0.0,0.1,0.009999999999999995,0,0.4139760180005396
87,934,FarHighWide,0.5,0.25,0.03,0.009999999999999995,0,0.3966386069987493
87,935,Constant,0.1,0.1,0.1,0.03981071705534971,1,0.34614657099882606
87,936,ThreeLinesControl,0.0,0.0,0.1,0.012589254117941666,0,0.4246633849979844
87,937,FarLowNarrow,0.1,0.15,0.2,0.015848931924611127,1,0.46342710300086765
87,938,ThreeLinesControl,0.0,0.0,0.1,0.015848931924611127,1,0.41108976699979394
87,939,Constant,0.1,0.1,0.1,0.031622776601683784,1,0.6331756579966168
87,940,FarHighWide,0.5,0.25,0.03,0.012589254117941666,0,0.6070059330013464
87,941,FarLowNarrow,0.1,0.15,0.2,0.012589254117941666,0,0.49019974199836724
87,942,Constant,0.1,0.1,0.1,0.02511886431509579,1,0.36071472999901744
87,943,Constant,0.1,0.1,0.1,0.01995262314968879,1,0.41520609999861335
87,944,Constant,0.1,0.1,0.1,0.015848931924611127,1,0.4177957920001063
87,945,FarLowWide,0.03,0.25,0.5,0.009999999999999995,0,0.4480163519983762
87,946,FarLowNarrow,0.1,0.15,0.2,0.015848931924611127,1,0.4939992440013157
87,947,FarHighWide_null,0.5,0.25,0.03,0.015848931924611127,1,0.532426015000965
87,948,FarLowWide,0.03,0.25,0.5,0.012589254117941666,0,0.4255940039984125
87,949,FarLowWide,0.03,0.25,0.5,0.015848931924611127,1,0.40760911100005615
87,950,ThreeLinesControl_null,0.0,0.0,0.1,0.01995262314968879,0,0.6857900610011711
87,951,Constant,0.1,0.1,0.1,0.012589254117941666,0,0.5319574829991325
87,952,ThreeLinesControl,0.0,0.0,0.1,0.012589254117941666,0,0.41901772400160553
87,953,FarLowWide,0.03,0.25,0.5,0.012589254117941666,0,0.3211779819976073
87,954,FarHighNarrow,0.2,0.15,0.1,0.01584893192461113,1,0.5763365759994485
87,955,FarLowNarrow_null,0.1,0.15,0.2,0.001995262314968878,1,0.2517001229971356
87,956,FarLowNarrow,0.1,0.15,0.2,0.012589254117941666,0,0.3216139159994782
87,957,FarLowNarrow,0.1,0.15,0.2,0.015848931924611127,1,0.532079116001114
87,958,FarHighNarrow,0.2,0.15,0.1,0.012589254117941668,0,0.5218731540007866
87,959,Constant,0.1,0.1,0.1,0.015848931924611127,1,0.7759279149977374
87,960,ThreeLinesControl,0.0,0.0,0.1,0.015848931924611127,0,0.6566755280000507
87,961,Constant,0.1,0.1,0.1,0.012589254117941666,1,0.40683400300258654
87,962,Constant,0.1,0.1,0.1,0.009999999999999995,0,0.32977726100216387
87,963,FarLowWide,0.03,0.25,0.5,0.015848931924611127,0,0.2879836290012463
87,964,Constant,0.1,0.1,0.1,0.012589254117941666,1,0.4593388919965946
87,965,FarHighNarrow,0.2,0.15,0.1,0.01584893192461113,1,0.4096608079998987
87,966,FarLowNarrow,0.1,0.15,0.2,0.012589254117941666,0,0.4475028510023549
87,967,ThreeLinesControl,0.0,0.0,0.1,0.01995262314968879,1,0.690550703999179
87,968,ThreeLinesControl,0.0,0.0,0.1,0.015848931924611127,1,0.47260152400122024
87,969,ThreeLinesControl,0.0,0.0,0.1,0.012589254117941666,0,0.5028618880023714
87,970,Constant,0.1,0.1,0.1,0.009999999999999995,0,0.5889884710013575
87,971,Constant,0.1,0.1,0.1,0.012589254117941666,0,0.49114843499773997
87,972,ThreeLinesControl,0.0,0.0,0.1,0.015848931924611127,1,0.43362835200241534
87,973,Constant,0.1,0.1,0.1,0.015848931924611127,1,0.27959381400069105
87,974,ThreeLinesControl,0.0,0.0,0.1,0.012589254117941666,1,0.780588543999329
87,975,FarHighWide,0.5,0.25,0.03,0.015848931924611127,1,0.651999153997167
87,976,Constant,0.1,0.1,0.1,0.012589254117941666,1,0.6107893560001685
87,977,Constant,0.1,0.1,0.1,0.009999999999999995,1,0.35313943999790354
87,978,Constant,0.1,0.1,0.1,0.00794328234724281,0,0.5245208640008059
87,979,FarLowWide,0.03,0.25,0.5,0.01995262314968879,1,0.3774336919996131
87,980,FarLowWide,0.03,0.25,0.5,0.015848931924611127,1,0.407474439998623
87,981,FarHighWide,0.5,0.25,0.03,0.012589254117941666,1,0.5706063260004157
87,982,FarHighWide,0.5,0.25,0.03,0.009999999999999995,1,0.8728414190009062
87,983,FarLowNarrow,0.1,0.15,0.2,0.015848931924611127,1,0.5960307899986219
87,984,ThreeLinesControl_null,0.0,0.0,0.1,0.025118864315095794,1,0.6019577110018872
87,985,FarHighWide,0.5,0.25,0.03,0.00794328234724281,1,0.6153266479996091
87,986,FarHighWide,0.5,0.25,0.03,0.0063095734448019285,1,0.5822507299999415
87,987,FarLowNarrow,0.1,0.15,0.2,0.012589254117941666,0,99
87,988,Constant,0.1,0.1,0.1,0.009999999999999995,0,99
87,989,FarLowWide_null,0.03,0.25,0.5,0.0063095734448019285,1,0.8902122330000566
87,990,FarLowNarrow,0.1,0.15,0.2,0.015848931924611127,0,0.83110450499953
87,991,FarHighNarrow,0.2,0.15,0.1,0.012589254117941668,0,0.4594292409965419
87,992,FarHighNarrow,0.2,0.15,0.1,0.01584893192461113,0,0.6344340809991991
87,993,FarHighNarrow,0.2,0.15,0.1,0.019952623149688792,1,0.802651996997156
87,994,Constant,0.1,0.1,0.1,0.012589254117941666,1,0.37249848099963856
87,995,FarHighWide,0.5,0.25,0.03,0.005011872336272719,0,0.4431111209996743
87,996,FarHighNarrow,0.2,0.15,0.1,0.01584893192461113,1,0.5367309840003145
87,997,FarLowNarrow,0.1,0.15,0.2,0.01995262314968879,1,0.4921130139991874
87,998,Constant,0.1,0.1,0.1,0.009999999999999995,0,0.4899447390016576
87,999,FarHighWide,0.5,0.25,0.03,0.0063095734448019285,0,0.406350792000012
87,1000,FarHighNarrow,0.2,0.15,0.1,0.012589254117941668,1,0.620519661999424
87,1001,FarHighWide,0.5,0.25,0.03,0.00794328234724281,0,0.5466352300027211
87,1002,Constant,0.1,0.1,0.1,0.012589254117941666,0,0.6245688710005197
87,1003,ThreeLinesControl,0.0,0.0,0.1,0.009999999999999995,0,0.52590783100095
87,1004,FarLowNarrow,0.1,0.15,0.2,0.015848931924611127,1,0.5879754050001793
87,1005,FarLowNarrow,0.1,0.15,0.2,0.012589254117941666,1,0.39540634600052726
87,1006,FarHighWide,0.5,0.25,0.03,0.009999999999999995,1,0.42547276099867304
87,1007,FarHighWide,0.5,0.25,0.03,0.00794328234724281,1,0.7467758899983892
87,1008,ThreeLinesControl,0.0,0.0,0.1,0.012589254117941666,0,0.5121506079995015
87,1009,Constant,0.1,0.1,0.1,0.015848931924611127,1,0.5031109310002648
87,1010,FarHighWide,0.5,0.25,0.03,0.0063095734448019285,0,0.43271957600154565
87,1011,Constant,0.1,0.1,0.1,0.012589254117941666,0,0.534212797996588
87,1012,ThreeLinesControl,0.0,0.0,0.1,0.015848931924611127,0,0.4522159379994264
87,1013,FarHighWide,0.5,0.25,0.03,0.00794328234724281,0,0.7275687299988931
87,1014,FarHighNarrow,0.2,0.15,0.1,0.009999999999999997,0,0.5657876110017241
87,1015,FarHighNarrow,0.2,0.15,0.1,0.012589254117941668,0,0.5160143629982485
87,1016,Constant_null,0.1,0.1,0.1,0.005011872336272719,1,0.39247828400039
87,1017,FarHighWide,0.5,0.25,0.03,0.009999999999999995,1,0.6781362840010843
87,1018,FarLowNarrow,0.1,0.15,0.2,0.009999999999999995,0,0.4679619400012598
87,1019,FarHighWide,0.5,0.25,0.03,0.00794328234724281,0,0.4262840910014347
87,1020,FarLowNarrow,0.1,0.15,0.2,0.012589254117941666,0,0.5286147339975287
87,1021,FarHighWide,0.5,0.25,0.03,0.009999999999999995,1,0.5211476820004464
87,1022,FarLowWide,0.03,0.25,0.5,0.012589254117941666,0,0.4800227759988047
87,1023,FarLowNarrow,0.1,0.15,0.2,0.015848931924611127,1,0.5811113150011806
87,1024,Constant,0.1,0.1,0.1,0.015848931924611127,1,0.3928510309997364
87,1025,Constant,0.1,0.1,0.1,0.012589254117941666,0,0.537366201999248
87,1026,FarHighWide,0.5,0.25,0.03,0.00794328234724281,0,0.6944445819972316
87,1027,FarHighNarrow,0.2,0.15,0.1,0.01584893192461113,1,0.5535307639984239
87,1028,FarLowWide,0.03,0.25,0.5,0.015848931924611127,0,0.5267891229996167
87,1029,FarLowNarrow,0.1,0.15,0.2,0.012589254117941666,1,0.5310678809983074
87,1030,ThreeLinesControl,0.0,0.0,0.1,0.01995262314968879,1,0.5759202269982779
87,1031,FarHighNarrow,0.2,0.15,0.1,0.012589254117941668,1,0.4302816930030531
87,1032,FarLowNarrow,0.1,0.15,0.2,0.009999999999999995,1,0.45924078700045357
87,1033,Constant,0.1,0.1,0.1,0.015848931924611127,1,0.45773568599906866
87,1034,FarLowNarrow,0.1,0.15,0.2,0.00794328234724281,1,0.575639549002517
87,1035,FarHighWide,0.5,0.25,0.03,0.009999999999999995,1,0.765675350001402
87,1036,FarLowWide,0.03,0.25,0.5,0.01995262314968879,1,0.5707320360015729
87,1037,FarHighWide,0.5,0.25,0.03,0.00794328234724281,1,0.587320919999911
87,1038,ThreeLinesControl,0.0,0.0,0.1,0.015848931924611127,1,0.4482464530010475
87,1039,FarLowWide,0.03,0.25,0.5,0.015848931924611127,1,0.45428339399950346
87,1040,FarHighWide,0.5,0.25,0.03,0.0063095734448019285,1,0.6586756850010715
87,1041,FarHighNarrow,0.2,0.15,0.1,0.009999999999999997,1,0.5284015530014585
87,1042,FarHighWide,0.5,0.25,0.03,0.005011872336272719,1,0.5998507760014036
87,1043,FarLowNarrow,0.1,0.15,0.2,0.0063095734448019285,0,0.5218555640021805
87,1044,Constant,0.1,0.1,0.1,0.012589254117941666,0,0.43091254599858075
87,1045,FarLowNarrow,0.1,0.15,0.2,0.00794328234724281,0,0.4448896300018532
87,1046,Constant,0.1,0.1,0.1,0.015848931924611127,1,0.5121701280004345
87,1047,FarHighNarrow,0.2,0.15,0.1,0.007943282347242812,1,0.7585199889981595
87,1048,FarHighNarrow,0.2,0.15,0.1,0.006309573444801929,0,0.6836025590018835
87,1049,FarLowNarrow,0.1,0.15,0.2,0.009999999999999995,1,0.6338554069989186
87,1050,FarLowNarrow,0.1,0.15,0.2,0.00794328234724281,1,0.5601490959998046
87,1051,FarLowWide,0.03,0.25,0.5,0.012589254117941666,0,0.5185876799987454
87,1052,FarHighNarrow,0.2,0.15,0.1,0.007943282347242812,0,0.4364150229994266
87,1053,FarLowNarrow,0.1,0.15,0.2,0.0063095734448019285,0,0.6093354080003337
87,1054,Constant,0.1,0.1,0.1,0.012589254117941666,1,0.6240641309996136
87,1055,FarHighNarrow,0.2,0.15,0.1,0.009999999999999997,1,0.7833397469985357
87,1056,FarLowWide_null,0.03,0.25,0.5,0.005011872336272719,1,0.5499402349996672
87,1057,FarLowWide,0.03,0.25,0.5,0.015848931924611127,1,0.6343904829991516
87,1058,Constant,0.1,0.1,0.1,0.009999999999999995,1,0.6881951360010135
87,1059,FarLowNarrow,0.1,0.15,0.2,0.00794328234724281,1,0.5635003220013459
87,1060,FarHighWide,0.5,0.25,0.03,0.00398107170553497,0,0.5293319800002791
87,1061,FarHighWide,0.5,0.25,0.03,0.00501187233627272,0,0.4871008579975751
87,1062,ThreeLinesControl,0.0,0.0,0.1,0.012589254117941666,0,0.6745510569999169
87,1063,FarLowWide,0.03,0.25,0.5,0.012589254117941666,0,0.6891253729991149
87,1064,FarHighNarrow,0.2,0.15,0.1,0.007943282347242812,0,0.5832667329996184
87,1065,ThreeLinesControl,0.0,0.0,0.1,0.015848931924611127,0,0.7640602930005116
87,1066,FarHighNarrow,0.2,0.15,0.1,0.009999999999999997,0,0.5539951310020115
87,1067,FarLowWide,0.03,0.25,0.5,0.015848931924611127,1,0.6477214070000628
87,1068,FarHighNarrow,0.2,0.15,0.1,0.012589254117941668,0,0.9898640969986445
87,1069,ThreeLinesControl,0.0,0.0,0.1,0.01995262314968879,1,0.659803718997864
87,1070,ThreeLinesControl,0.0,0.0,0.1,0.015848931924611127,1,0.37870390400348697
87,1071,ThreeLinesControl,0.0,0.0,0.1,0.012589254117941666,1,0.6495532280023326
87,1072,FarLowNarrow,0.1,0.15,0.2,0.0063095734448019285,1,0.28913476500019897
87,1073,Constant,0.1,0.1,0.1,0.00794328234724281,1,0.6436073650002072
87,1074,FarHighWide,0.5,0.25,0.03,0.006309573444801929,1,0.737634466997406
87,1075,Constant,0.1,0.1,0.1,0.0063095734448019285,0,0.7569450299997698
87,1076,FarLowNarrow,0.1,0.15,0.2,0.005011872336272719,0,0.6990190759970574
87,1077,FarLowWide,0.03,0.25,0.5,0.012589254117941666,0,0.5848584279992792
87,1078,ThreeLinesControl,0.0,0.0,0.1,0.009999999999999995,0,0.6037711360004323
87,1079,FarHighWide,0.5,0.25,0.03,0.00501187233627272,1,0.5059735950017057
87,1080,Constant,0.1,0.1,0.1,0.00794328234724281,0,0.7014684169989778
87,1081,FarLowWide,0.03,0.25,0.5,0.015848931924611127,0,0.4273866210023698
87,1082,ThreeLinesControl,0.0,0.0,0.1,0.012589254117941666,0,0.28656490000139456
87,1083,Constant,0.1,0.1,0.1,0.009999999999999995,0,0.2837423339988163
87,1084,Constant,0.1,0.1,0.1,0.012589254117941666,0,0.29733314399709343
87,1085,FarHighWide,0.5,0.25,0.03,0.00398107170553497,0,0.36754007400304545
87,1086,FarHighNarrow_null,0.2,0.15,0.1,0.012589254117941666,1,0.25419761200100766
87,1087,FarLowNarrow,0.1,0.15,0.2,0.0063095734448019285,0,0.24327881899807835
87,1088,ThreeLinesControl,0.0,0.0,0.1,0.015848931924611127,0,0.27436058999956003
87,1089,Constant,0.1,0.1,0.1,0.015848931924611127,0,0.23142343200015603
87,1090,ThreeLinesControl,0.0,0.0,0.1,0.01995262314968879,1,0.4537444810011948
87,1091,Constant,0.1,0.1,0.1,0.01995262314968879,1,0.3965941180031223
87,1092,FarHighWide,0.5,0.25,0.03,0.00501187233627272,1,0.4269532159996743
87,1093,ThreeLinesControl,0.0,0.0,0.1,0.015848931924611127,1,0.5592869270003575
87,1094,Constant,0.1,0.1,0.1,0.015848931924611127,1,0.42820642300284817
87,1095,FarLowWide,0.03,0.25,0.5,0.01995262314968879,0,0.3621845609995944
87,1096,Constant_null,0.1,0.1,0.1,0.00398107170553497,0,0.293339730000298
87,1097,ThreeLinesControl,0.0,0.0,0.1,0.012589254117941666,0,0.5239194599998882
87,1098,FarLowWide,0.03,0.25,0.5,0.025118864315095794,0,0.17031362999841804
87,1099,FarHighNarrow_null,0.2,0.15,0.1,0.009999999999999995,1,0.20483188499929383
87,1100,Constant,0.1,0.1,0.1,0.012589254117941666,1,0.43412157200145884
87,1101,Constant,0.1,0.1,0.1,0.009999999999999995,0,0.4324221460010449
87,1102,ThreeLinesControl,0.0,0.0,0.1,0.015848931924611127,1,0.4384655069989094
87,1103,FarLowNarrow,0.1,0.15,0.2,0.00794328234724281,1,0.26053952900110744
87,1104,FarLowWide,0.03,0.25,0.5,0.031622776601683784,1,0.2750140280004416
87,1105,ThreeLinesControl,0.0,0.0,0.1,0.012589254117941666,1,0.4408142440006486
87,1106,FarLowNarrow,0.1,0.15,0.2,0.0063095734448019285,1,0.3352089390027686
87,1107,ThreeLinesControl_null,0.0,0.0,0.1,0.01995262314968879,1,0.2928404379999847
87,1108,FarHighWide,0.5,0.25,0.03,0.00398107170553497,0,0.3951237939982093
87,1109,Constant,0.1,0.1,0.1,0.012589254117941666,0,0.3861896620001062
87,1110,Constant,0.1,0.1,0.1,0.015848931924611127,0,0.30148509300124715
87,1111,FarLowWide,0.03,0.25,0.5,0.02511886431509579,1,0.15598853300252813
87,1112,FarLowWide,0.03,0.25,0.5,0.01995262314968879,1,0.3347709070003475
87,1113,FarLowWide,0.03,0.25,0.5,0.015848931924611127,1,0.2687985920019855
87,1114,Constant,0.1,0.1,0.1,0.01995262314968879,1,0.3471965949975129
87,1115,FarLowNarrow,0.1,0.15,0.2,0.005011872336272719,1,0.3185888359985256
87,1116,Constant,0.1,0.1,0.1,0.015848931924611127,1,0.4845875780010829
87,1117,FarLowNarrow,0.1,0.15,0.2,0.00398107170553497,0,0.3146738879986515
87,1118,FarLowNarrow,0.1,0.15,0.2,0.00501187233627272,0,0.2325166189984884
87,1119,FarHighWide,0.5,0.25,0.03,0.00501187233627272,0,0.4948009079998883
87,1120,ThreeLinesControl,0.0,0.0,0.1,0.009999999999999995,0,0.3086971779994201
87,1121,FarLowNarrow,0.1,0.15,0.2,0.006309573444801929,0,0.2102288040005078
87,1122,FarLowWide,0.03,0.25,0.5,0.012589254117941666,0,0.41640851700140047
87,1123,FarLowNarrow,0.1,0.15,0.2,0.007943282347242812,0,0.2393467839974619
87,1124,ThreeLinesControl,0.0,0.0,0.1,0.012589254117941666,0,0.2216429000000062
87,1125,ThreeLinesControl,0.0,0.0,0.1,0.015848931924611127,0,0.18010271999810357
87,1126,Constant,0.1,0.1,0.1,0.012589254117941666,0,0.37600242100234027
87,1127,ThreeLinesControl,0.0,0.0,0.1,0.01995262314968879,0,0.349361950000457
87,1128,ThreeLinesControl,0.0,0.0,0.1,0.025118864315095794,1,0.45740031500099576
87,1129,Constant,0.1,0.1,0.1,0.015848931924611127,1,0.5024536060009268
87,1130,Constant,0.1,0.1,0.1,0.012589254117941666,1,0.5404137849982362
87,1131,ThreeLinesControl,0.0,0.0,0.1,0.01995262314968879,1,0.5289236159987922
87,1132,FarLowNarrow,0.1,0.15,0.2,0.009999999999999997,1,0.6870892379993165
87,1133,FarLowWide,0.03,0.25,0.5,0.015848931924611127,0,0.5881531369996083
87,1134,FarHighWide_null,0.5,0.25,0.03,0.012589254117941666,1,0.5382748529991659
87,1135,FarLowWide,0.03,0.25,0.5,0.01995262314968879,1,0.5924585559987463
87,1136,FarLowNarrow,0.1,0.15,0.2,0.007943282347242812,1,0.5744409859980806
87,1137,ThreeLinesControl,0.0,0.0,0.1,0.015848931924611127,1,0.56485706100284
87,1138,ThreeLinesControl_null,0.0,0.0,0.1,0.015848931924611127,1,0.41072327999791014
87,1139,FarLowNarrow,0.1,0.15,0.2,0.006309573444801929,0,0.2567989880008099
87,1140,FarLowNarrow,0.1,0.15,0.2,0.007943282347242812,0,0.2881347399998049
87,1141,ThreeLinesControl,0.0,0.0,0.1,0.012589254117941666,0,0.3349598140011949
87,1142,FarLowWide,0.03,0.25,0.5,0.015848931924611127,1,0.4814607980006258
87,1143,FarLowWide,0.03,0.25,0.5,0.012589254117941666,0,0.3914019800031383
87,1144,FarLowWide,0.03,0.25,0.5,0.015848931924611127,0,99
87,1145,Constant,0.1,0.1,0.1,0.009999999999999995,1,0.448705119000806
87,1146,ThreeLinesControl,0.0,0.0,0.1,0.015848931924611127,1,0.3030249339972215
87,1147,Constant,0.1,0.1,0.1,0.00794328234724281,0,0.4738021330012998
87,1148,Constant,0.1,0.1,0.1,0.009999999999999995,0,0.6005542959974264
87,1149,ThreeLinesControl,0.0,0.0,0.1,0.012589254117941666,1,0.30232012800115626
87,1150,Constant,0.1,0.1,0.1,0.012589254117941666,0,0.4045815289973689
87,1151,FarLowWide,0.03,0.25,0.5,0.01995262314968879,0,0.258404480999161
87,1152,Constant,0.1,0.1,0.1,0.015848931924611127,1,0.3849608870004886
87,1153,Constant,0.1,0.1,0.1,0.012589254117941666,1,0.5029817889990227
87,1154,Constant,0.1,0.1,0.1,0.009999999999999995,1,0.46910929799923906
87,1155,Constant,0.1,0.1,0.1,0.00794328234724281,1,0.33915703800084884
87,1156,ThreeLinesControl,0.0,0.0,0.1,0.009999999999999995,0,0.3704140769987134
87,1157,ThreeLinesControl,0.0,0.0,0.1,0.012589254117941666,1,0.47282621600243147
87,1158,ThreeLinesControl,0.0,0.0,0.1,0.009999999999999995,0,0.49885553900094237
87,1159,FarHighWide_null,0.5,0.25,0.03,0.009999999999999995,1,0.5688389440001629
87,1160,ThreeLinesControl,0.0,0.0,0.1,0.012589254117941666,0,0.5990151559999504
87,1161,ThreeLinesControl,0.0,0.0,0.1,0.015848931924611127,0,0.5220687660003023
87,1162,FarHighNarrow_null,0.2,0.15,0.1,0.00794328234724281,1,0.47252494799977285
87,1163,FarLowWide,0.03,0.25,0.5,0.025118864315095794,1,0.4862038890023541
87,1164,Constant,0.1,0.1,0.1,0.0063095734448019285,0,0.6508068740004092
87,1165,Constant,0.1,0.1,0.1,0.00794328234724281,1,0.48088516499774414
87,1166,Constant_null,0.1,0.1,0.1,0.00501187233627272,1,0.4791014830007043
87,1167,FarLowWide,0.03,0.25,0.5,0.01995262314968879,0,0.7803893999989668
87,1168,ThreeLinesControl,0.0,0.0,0.1,0.01995262314968879,1,0.618208798001433
87,1169,Constant,0.1,0.1,0.1,0.0063095734448019285,0,0.48934303900023224
87,1170,ThreeLinesControl,0.0,0.0,0.1,0.015848931924611127,1,0.5436155220013461
87,1171,FarLowWide_null,0.03,0.25,0.5,0.00398107170553497,1,0.3098051769993617
87,1172,FarLowWide,0.03,0.25,0.5,0.025118864315095794,1,0.5485992440007976
87,1173,ThreeLinesControl,0.0,0.0,0.1,0.012589254117941666,0,0.6336870580016694
87,1174,Constant,0.1,0.1,0.1,0.00794328234724281,0,0.6240475880003942
87,1175,FarLowWide,0.03,0.25,0.5,0.01995262314968879,0,0.6353303699979733
87,1176,ThreeLinesControl,0.0,0.0,0.1,0.015848931924611127,0,0.5058680470028776
87,1177,FarLowWide,0.03,0.25,0.5,0.025118864315095794,0,0.41278837000209023
87,1178,FarLowWide,0.03,0.25,0.5,0.031622776601683784,0,0.5150356480007758
87,1179,ThreeLinesControl,0.0,0.0,0.1,0.01995262314968879,1,0.4086877469999308
87,1180,ThreeLinesControl,0.0,0.0,0.1,0.015848931924611127,1,0.2536499739981082
87,1181,ThreeLinesControl,0.0,0.0,0.1,0.012589254117941666,0,0.5231637619981484
87,1182,ThreeLinesControl,0.0,0.0,0.1,0.015848931924611127,1,0.5451526539982297
87,1183,Constant,0.1,0.1,0.1,0.009999999999999995,0,0.6954845629988995
87,1184,Constant,0.1,0.1,0.1,0.012589254117941666,0,0.526138061999518
87,1185,ThreeLinesControl,0.0,0.0,0.1,0.012589254117941666,1,0.24543188399911742
87,1186,Constant,0.1,0.1,0.1,0.015848931924611127,0,0.1628345380013343
87,1187,Constant,0.1,0.1,0.1,0.01995262314968879,0,0.23225225700298324
87,1188,FarHighWide_null,0.5,0.25,0.03,0.00794328234724281,1,0.3831421370014141
87,1189,Constant,0.1,0.1,0.1,0.025118864315095794,0,99
87,1190,Constant,0.1,0.1,0.1,0.031622776601683784,1,0.21057399999699555
87,1191,FarHighNarrow_null,0.2,0.15,0.1,0.0063095734448019285,1,0.4536419400028535
87,1192,ThreeLinesControl_null,0.0,0.0,0.1,0.012589254117941666,1,0.41181153299839934
87,1193,ThreeLinesControl_null,0.0,0.0,0.1,0.009999999999999995,1,0.34380665400021826
87,1194,FarLowNarrow_null,0.1,0.15,0.2,0.0015848931924611121,1,0.33374235600058455
87,1195,FarLowWide_null,0.03,0.25,0.5,0.0031622776601683772,1,0.2671338410000317
87,1196,FarHighNarrow_null,0.2,0.15,0.1,0.005011872336272719,1,0.32854051899994374
87,1197,FarHighNarrow_null,0.2,0.15,0.1,0.00398107170553497,1,0.32555675099865766
87,1198,FarHighNarrow_null,0.2,0.15,0.1,0.0031622776601683772,1,0.4599019050001516
87,1199,ThreeLinesControl_null,0.0,0.0,0.1,0.00794328234724281,1,0.537988910000422
