Participant_Number,Trial_Number,Condition,FCfar,FCmed,FCclose,Target_Contrast,Correct_Response,Reaction_Time
88,0,ThreeLinesControl,0.0,0.0,0.1,0.1,1,0.5186651539988816
88,1,FarHighWide_null,0.5,0.25,0.03,0.1,0,0.6499639249959728
88,2,FarHighNarrow,0.2,0.15,0.1,0.1,1,0.4478785749961389
88,3,FarHighNarrow,0.2,0.15,0.1,0.07943282347242815,1,0.2979856580059277
88,4,Constant,0.1,0.1,0.1,0.1,1,0.24018795099982526
88,5,FarLowWide,0.03,0.25,0.5,0.1,1,0.14265929801331367
88,6,Constant,0.1,0.1,0.1,0.07943282347242815,1,0.1316110860061599
88,7,FarHighWide,0.5,0.25,0.03,0.1,1,0.14554670298821293
88,8,FarLowWide_null,0.03,0.25,0.5,0.1,0,0.1197059830010403
88,9,Constant,0.1,0.1,0.1,0.06309573444801932,1,0.2616313979960978
88,10,FarLowWide,0.03,0.25,0.5,0.07943282347242815,1,0.14031966299808118
88,11,Constant,0.1,0.1,0.1,0.05011872336272722,1,0.20206864501233213
88,12,FarLowNarrow,0.1,0.15,0.2,0.1,1,0.16086332699342165
88,13,FarHighWide,0.5,0.25,0.03,0.07943282347242815,1,0.17562324900063686
88,14,FarLowNarrow,0.1,0.15,0.2,0.07943282347242815,1,0.13152119501319248
88,15,FarHighNarrow,0.2,0.15,0.1,0.06309573444801932,1,0.13754512601008173
88,16,Constant,0.1,0.1,0.1,0.03981071705534971,1,0.10382754700549413
88,17,FarLowWide_null,0.03,0.25,0.5,0.1,0,0.09884890599641949
88,18,Constant,0.1,0.1,0.1,0.031622776601683784,1,0.0811634789861273
88,19,FarLowNarrow_null,0.1,0.15,0.2,0.1,0,0.13526001099671703
88,20,FarHighWide,0.5,0.25,0.03,0.06309573444801932,1,0.14644936299009714
88,21,FarLowNarrow_null,0.1,0.15,0.2,0.1,1,0.056646144003025256
88,22,Constant,0.1,0.1,0.1,0.02511886431509579,0,0.10181530499539804
88,23,FarHighWide,0.5,0.25,0.03,0.05011872336272722,1,0.06788504499127157
88,24,FarLowNarrow,0.1,0.15,0.2,0.06309573444801932,0,99
88,25,FarHighNarrow,0.2,0.15,0.1,0.05011872336272722,0,99
88,26,ThreeLinesControl,0.0,0.0,0.1,0.07943282347242815,0,99
88,27,ThreeLinesControl,0.0,0.0,0.1,0.1,1,0.0524751000048127
88,28,FarLowWide,0.03,0.25,0.5,0.06309573444801932,1,0.05120115799945779
88,29,ThreeLinesControl,0.0,0.0,0.1,0.07943282347242815,1,0.11353299500478897
88,30,FarLowNarrow,0.1,0.15,0.2,0.07943282347242814,1,0.16785951600468252
88,31,FarLowNarrow_null,0.1,0.15,0.2,0.07943282347242815,0,0.10006487499049399
88,32,Constant,0.1,0.1,0.1,0.031622776601683784,0,99
88,33,ThreeLinesControl,0.0,0.0,0.1,0.06309573444801932,1,0.03629064800043125
88,34,Constant,0.1,0.1,0.1,0.03981071705534971,0,0.02698414900805801
88,35,FarLowWide,0.03,0.25,0.5,0.05011872336272722,1,0.08043717801047023
88,36,FarHighWide,0.5,0.25,0.03,0.03981071705534971,1,0.0917182979901554
88,37,ThreeLinesControl,0.0,0.0,0.1,0.05011872336272722,1,0.0497001190087758
88,38,ThreeLinesControl,0.0,0.0,0.1,0.03981071705534971,1,0.13594956700399052
88,39,ThreeLinesControl_null,0.0,0.0,0.1,0.1,0,0.1739920130057726
88,40,FarHighNarrow,0.2,0.15,0.1,0.06309573444801932,1,0.1001362609968055
88,41,FarLowNarrow_null,0.1,0.15,0.2,0.1,0,0.12245035399973858
88,42,FarHighNarrow,0.2,0.15,0.1,0.05011872336272722,1,0.055746931000612676
88,43,FarHighNarrow,0.2,0.15,0.1,0.03981071705534971,1,0.0702250189933693
88,44,Constant,0.1,0.1,0.1,0.05011872336272721,1,0.24514410700066946
88,45,Constant_null,0.1,0.1,0.1,0.1,1,0.13888872099050786
88,46,FarHighNarrow,0.2,0.15,0.1,0.031622776601683784,0,0.0818036150012631
88,47,FarLowWide,0.03,0.25,0.5,0.03981071705534971,0,99
88,48,ThreeLinesControl,0.0,0.0,0.1,0.031622776601683784,0,99
88,49,FarHighWide_null,0.5,0.25,0.03,0.1,0,99
88,50,FarLowNarrow,0.1,0.15,0.2,0.06309573444801932,0,99
88,51,ThreeLinesControl,0.0,0.0,0.1,0.03981071705534971,0,99
88,52,FarLowNarrow,0.1,0.15,0.2,0.07943282347242814,1,0.1262325179995969
88,53,FarLowNarrow,0.1,0.15,0.2,0.06309573444801932,1,0.17220132000511512
88,54,ThreeLinesControl,0.0,0.0,0.1,0.05011872336272721,1,0.1775707299966598
88,55,FarHighWide,0.5,0.25,0.03,0.031622776601683784,0,0.10353572000167333
88,56,FarHighNarrow,0.2,0.15,0.1,0.03981071705534971,1,0.11773199700110126
88,57,FarLowNarrow,0.1,0.15,0.2,0.05011872336272722,0,0.06838753400370479
88,58,Constant,0.1,0.1,0.1,0.03981071705534971,1,0.15390647400636226
88,59,FarLowWide,0.03,0.25,0.5,0.05011872336272721,1,0.22418191900942475
88,60,FarHighNarrow,0.2,0.15,0.1,0.031622776601683784,0,0.14224876000662334
88,61,ThreeLinesControl,0.0,0.0,0.1,0.03981071705534971,0,99
88,62,FarHighWide,0.5,0.25,0.03,0.03981071705534971,0,99
88,63,FarHighWide,0.5,0.25,0.03,0.05011872336272721,1,0.03870270200422965
88,64,Constant,0.1,0.1,0.1,0.031622776601683784,1,0.06860362600127701
88,65,Constant,0.1,0.1,0.1,0.02511886431509579,1,0.059357010992243886
88,66,FarLowWide,0.03,0.25,0.5,0.03981071705534971,1,0.014382583001861349
88,67,FarHighWide,0.5,0.25,0.03,0.03981071705534971,0,99
88,68,FarHighNarrow,0.2,0.15,0.1,0.03981071705534971,1,0.06356496798980515
88,69,FarHighNarrow,0.2,0.15,0.1,0.031622776601683784,1,0.09377616900019348
88,70,FarLowWide,0.03,0.25,0.5,0.031622776601683784,0,0.12276203799410723
88,71,FarLowWide,0.03,0.25,0.5,0.03981071705534971,1,0.21668855400639586
88,72,FarHighNarrow,0.2,0.15,0.1,0.02511886431509579,1,0.031068822005181573
88,73,FarHighNarrow,0.2,0.15,0.1,0.01995262314968879,1,0.09297271000104956
88,74,FarLowNarrow,0.1,0.15,0.2,0.06309573444801932,0,99
88,75,FarLowWide,0.03,0.25,0.5,0.031622776601683784,0,99
88,76,FarHighNarrow,0.2,0.15,0.1,0.015848931924611127,0,99
88,77,FarHighWide,0.5,0.25,0.03,0.05011872336272721,1,0.13387111900374293
88,78,FarLowWide,0.03,0.25,0.5,0.03981071705534971,0,0.6131693850038573
88,79,FarHighWide,0.5,0.25,0.03,0.03981071705534971,1,0.40719371898740064
88,80,FarHighWide_null,0.5,0.25,0.03,0.1,0,0.12528704100986943
88,81,FarLowNarrow,0.1,0.15,0.2,0.07943282347242814,1,0.22728159200050868
88,82,Constant,0.1,0.1,0.1,0.01995262314968879,1,0.19042178500967566
88,83,FarLowWide,0.03,0.25,0.5,0.05011872336272721,0,0.1962323069892591
88,84,FarLowWide,0.03,0.25,0.5,0.0630957344480193,1,0.0826597569976002
88,85,ThreeLinesControl_null,0.0,0.0,0.1,0.1,0,99
88,86,ThreeLinesControl,0.0,0.0,0.1,0.05011872336272721,0,99
88,87,FarHighNarrow,0.2,0.15,0.1,0.01995262314968879,0,99
88,88,FarLowNarrow_null,0.1,0.15,0.2,0.1,0,0.0555528749973746
88,89,ThreeLinesControl,0.0,0.0,0.1,0.0630957344480193,0,0.005479861996718682
88,90,FarLowNarrow,0.1,0.15,0.2,0.06309573444801932,0,99
88,91,FarHighNarrow,0.2,0.15,0.1,0.025118864315095794,0,0.05879103399638552
88,92,FarHighNarrow_null,0.2,0.15,0.1,0.1,1,0.40082166698994115
88,93,FarHighNarrow,0.2,0.15,0.1,0.031622776601683784,1,0.40828010300174356
88,94,FarLowWide,0.03,0.25,0.5,0.050118723362727206,0,0.4625977269897703
88,95,ThreeLinesControl,0.0,0.0,0.1,0.07943282347242812,1,0.43747673599864356
88,96,FarLowNarrow,0.1,0.15,0.2,0.07943282347242814,1,0.3516354859893909
88,97,FarLowNarrow,0.1,0.15,0.2,0.06309573444801932,1,0.2780316220014356
88,98,FarHighWide,0.5,0.25,0.03,0.031622776601683784,1,0.3765988570085028
88,99,Constant,0.1,0.1,0.1,0.015848931924611127,1,0.48684771700936835
88,100,FarHighWide,0.5,0.25,0.03,0.02511886431509579,1,0.20514204699429683
88,101,Constant,0.1,0.1,0.1,0.012589254117941666,1,0.33729875800781883
88,102,ThreeLinesControl,0.0,0.0,0.1,0.0630957344480193,0,0.35167536699736957
88,103,Constant,0.1,0.1,0.1,0.009999999999999995,1,0.3019340479950188
88,104,FarLowWide,0.03,0.25,0.5,0.0630957344480193,1,0.322942012004205
88,105,FarLowWide,0.03,0.25,0.5,0.050118723362727206,0,0.39269449199491646
88,106,ThreeLinesControl,0.0,0.0,0.1,0.07943282347242812,1,0.40724452398717403
88,107,FarLowWide,0.03,0.25,0.5,0.0630957344480193,1,0.42252595399622805
88,108,ThreeLinesControl,0.0,0.0,0.1,0.0630957344480193,1,0.24472721198981162
88,109,FarLowWide,0.03,0.25,0.5,0.050118723362727206,0,0.45961831300519407
88,110,FarHighWide,0.5,0.25,0.03,0.01995262314968879,0,0.4097236950037768
88,111,FarLowNarrow,0.1,0.15,0.2,0.05011872336272722,1,0.32917126899701543
88,112,FarHighNarrow,0.2,0.15,0.1,0.02511886431509579,0,0.402723645005608
88,113,FarHighNarrow,0.2,0.15,0.1,0.031622776601683784,0,0.36115692800376564
88,114,Constant,0.1,0.1,0.1,0.00794328234724281,0,0.6120767749962397
88,115,FarLowWide_null,0.03,0.25,0.5,0.1,0,0.5305924519925611
88,116,FarHighNarrow,0.2,0.15,0.1,0.03981071705534971,0,0.6246956629911438
88,117,Constant,0.1,0.1,0.1,0.009999999999999995,0,0.6446511690010084
88,118,Constant,0.1,0.1,0.1,0.012589254117941666,0,0.44290122100210283
88,119,FarLowWide,0.03,0.25,0.5,0.0630957344480193,1,0.5769400319986744
88,120,FarLowWide,0.03,0.25,0.5,0.050118723362727206,0,0.5122867699974449
88,121,FarLowWide,0.03,0.25,0.5,0.0630957344480193,0,0.3985910920018796
88,122,FarHighWide,0.5,0.25,0.03,0.025118864315095794,0,0.4764649900025688
88,123,FarLowWide,0.03,0.25,0.5,0.07943282347242812,1,0.45115528600581456
88,124,FarHighWide,0.5,0.25,0.03,0.031622776601683784,0,0.3689566899993224
88,125,FarLowWide,0.03,0.25,0.5,0.0630957344480193,0,0.32148229199810885
88,126,FarHighNarrow,0.2,0.15,0.1,0.05011872336272721,0,0.3590537080017384
88,127,FarHighWide,0.5,0.25,0.03,0.03981071705534971,1,0.2614525800017873
88,128,FarHighWide,0.5,0.25,0.03,0.031622776601683784,1,0.29063110100105405
88,129,FarHighNarrow,0.2,0.15,0.1,0.0630957344480193,1,0.2138089799991576
88,130,ThreeLinesControl,0.0,0.0,0.1,0.050118723362727206,0,0.4028580529993633
88,131,ThreeLinesControl_null,0.0,0.0,0.1,0.1,1,0.41668767199735157
88,132,FarLowNarrow,0.1,0.15,0.2,0.03981071705534971,0,0.36466593999648467
88,133,Constant,0.1,0.1,0.1,0.015848931924611127,1,0.2744500739936484
88,134,FarHighNarrow,0.2,0.15,0.1,0.050118723362727206,1,0.32771642500301823
88,135,FarHighNarrow,0.2,0.15,0.1,0.039810717055349706,1,0.525769986998057
88,136,ThreeLinesControl,0.0,0.0,0.1,0.0630957344480193,1,0.2758775609981967
88,137,FarHighWide_null,0.5,0.25,0.03,0.1,0,0.25685266600339673
88,138,ThreeLinesControl_null,0.0,0.0,0.1,0.07943282347242815,1,0.36709309500292875
88,139,FarHighWide,0.5,0.25,0.03,0.02511886431509579,1,0.3331420379981864
88,140,ThreeLinesControl,0.0,0.0,0.1,0.050118723362727206,0,0.4682481089985231
88,141,FarHighNarrow,0.2,0.15,0.1,0.03162277660168378,1,0.2982889019913273
88,142,FarHighWide,0.5,0.25,0.03,0.01995262314968879,0,0.36955147799744736
88,143,FarLowWide,0.03,0.25,0.5,0.07943282347242812,0,0.3568838890059851
88,144,FarHighNarrow,0.2,0.15,0.1,0.025118864315095787,1,0.2380081430019345
88,145,Constant,0.1,0.1,0.1,0.012589254117941666,0,0.400205781988916
88,146,FarHighNarrow_null,0.2,0.15,0.1,0.07943282347242815,1,0.2933243070001481
88,147,FarLowNarrow,0.1,0.15,0.2,0.05011872336272721,0,0.32342807701206766
88,148,FarLowWide,0.03,0.25,0.5,0.09999999999999998,1,0.3508194599999115
88,149,FarHighWide,0.5,0.25,0.03,0.025118864315095794,0,0.284528276999481
88,150,FarLowWide,0.03,0.25,0.5,0.07943282347242812,0,0.5713115490070777
88,151,FarHighWide,0.5,0.25,0.03,0.031622776601683784,0,0.46376298399991356
88,152,FarLowWide,0.03,0.25,0.5,0.09999999999999998,1,0.2940361170039978
88,153,FarLowNarrow,0.1,0.15,0.2,0.0630957344480193,1,0.3398931959964102
88,154,ThreeLinesControl,0.0,0.0,0.1,0.0630957344480193,1,0.3374232220085105
88,155,FarHighWide,0.5,0.25,0.03,0.03981071705534971,0,0.4075733740028227
88,156,FarHighWide,0.5,0.25,0.03,0.05011872336272721,0,0.4402305309922667
88,157,Constant_null,0.1,0.1,0.1,0.07943282347242815,1,0.44689581998682115
88,158,ThreeLinesControl_null,0.0,0.0,0.1,0.06309573444801932,1,0.39708920000703074
88,159,FarHighWide,0.5,0.25,0.03,0.0630957344480193,1,0.42396186299447436
88,160,ThreeLinesControl,0.0,0.0,0.1,0.050118723362727206,0,0.3262569249927765
88,161,FarHighNarrow,0.2,0.15,0.1,0.019952623149688785,0,0.30872370800352655
88,162,FarLowNarrow,0.1,0.15,0.2,0.050118723362727206,0,0.40775677499186713
88,163,ThreeLinesControl,0.0,0.0,0.1,0.0630957344480193,1,0.17369858198799193
88,164,FarHighNarrow,0.2,0.15,0.1,0.025118864315095787,0,0.3288181789976079
88,165,FarHighWide,0.5,0.25,0.03,0.050118723362727206,1,0.566832565004006
88,166,Constant_null,0.1,0.1,0.1,0.06309573444801932,1,0.3493411529925652
88,167,FarLowNarrow,0.1,0.15,0.2,0.0630957344480193,1,0.31430801800161134
88,168,Constant,0.1,0.1,0.1,0.015848931924611127,1,0.2476182090031216
88,169,FarHighWide,0.5,0.25,0.03,0.039810717055349706,1,0.3975451790029183
88,170,FarHighWide_null,0.5,0.25,0.03,0.1,1,0.3398178089992143
88,171,Constant,0.1,0.1,0.1,0.012589254117941666,0,0.329817637000815
88,172,FarLowNarrow_null,0.1,0.15,0.2,0.1,1,0.32106550100434106
88,173,Constant,0.1,0.1,0.1,0.015848931924611127,1,0.3519639729929622
88,174,FarHighNarrow,0.2,0.15,0.1,0.03162277660168378,1,0.31866846200136933
88,175,FarLowWide,0.03,0.25,0.5,0.07943282347242812,1,0.2813829919905402
88,176,FarLowNarrow,0.1,0.15,0.2,0.050118723362727206,1,0.28795450199686456
88,177,FarLowWide,0.03,0.25,0.5,0.0630957344480193,1,0.33391024998854846
88,178,Constant,0.1,0.1,0.1,0.012589254117941666,0,0.3529009549965849
88,179,FarHighNarrow_null,0.2,0.15,0.1,0.06309573444801932,1,0.3030714180058567
88,180,ThreeLinesControl,0.0,0.0,0.1,0.050118723362727206,0,0.26831156300613657
88,181,ThreeLinesControl,0.0,0.0,0.1,0.0630957344480193,1,0.15113164400099777
88,182,FarLowNarrow,0.1,0.15,0.2,0.039810717055349706,1,0.2295629989966983
88,183,Constant,0.1,0.1,0.1,0.015848931924611127,0,0.33984435099409893
88,184,Constant,0.1,0.1,0.1,0.01995262314968879,1,0.2649923020071583
88,185,FarLowWide,0.03,0.25,0.5,0.050118723362727206,1,0.2629368399939267
88,186,Constant_null,0.1,0.1,0.1,0.05011872336272722,1,0.31703539298905525
88,187,FarLowNarrow,0.1,0.15,0.2,0.03162277660168378,0,0.32216696100658737
88,188,FarHighWide,0.5,0.25,0.03,0.03162277660168378,0,0.32027472999470774
88,189,FarLowWide,0.03,0.25,0.5,0.039810717055349706,0,0.4557625029992778
88,190,FarHighNarrow,0.2,0.15,0.1,0.025118864315095787,1,0.43790857000567485
88,191,FarLowNarrow,0.1,0.15,0.2,0.039810717055349706,1,0.29759360699972603
88,192,FarHighWide,0.5,0.25,0.03,0.039810717055349706,1,0.2801173689949792
88,193,Constant,0.1,0.1,0.1,0.015848931924611127,0,0.35011277900775895
88,194,FarHighNarrow,0.2,0.15,0.1,0.019952623149688785,0,0.37728072398749646
88,195,FarLowNarrow,0.1,0.15,0.2,0.03162277660168378,1,0.3432636929937871
88,196,Constant,0.1,0.1,0.1,0.01995262314968879,1,0.23663589199713897
88,197,ThreeLinesControl,0.0,0.0,0.1,0.050118723362727206,0,0.2729741590010235
88,198,FarLowWide,0.03,0.25,0.5,0.050118723362727206,1,0.1499098720087204
88,199,FarHighNarrow,0.2,0.15,0.1,0.025118864315095787,1,0.2678335039963713
88,200,ThreeLinesControl,0.0,0.0,0.1,0.0630957344480193,1,0.2500806839962024
88,201,FarHighNarrow,0.2,0.15,0.1,0.019952623149688785,1,0.2960942899953807
88,202,FarHighWide,0.5,0.25,0.03,0.03162277660168378,1,0.27054522100661416
88,203,Constant,0.1,0.1,0.1,0.015848931924611127,1,0.37962515201070346
88,204,FarHighWide,0.5,0.25,0.03,0.025118864315095787,0,0.3136059389944421
88,205,Constant,0.1,0.1,0.1,0.012589254117941666,1,0.24061641699518077
88,206,FarLowNarrow,0.1,0.15,0.2,0.025118864315095787,1,0.2951836669963086
88,207,FarHighNarrow,0.2,0.15,0.1,0.015848931924611124,1,0.32617187200230546
88,208,FarLowWide,0.03,0.25,0.5,0.039810717055349706,0,0.3694399169908138
88,209,FarLowNarrow,0.1,0.15,0.2,0.019952623149688785,1,0.3434947990026558
88,210,FarLowNarrow,0.1,0.15,0.2,0.015848931924611124,0,99
88,211,FarLowWide,0.03,0.25,0.5,0.050118723362727206,1,0.24876824000966735
88,212,FarLowWide_null,0.03,0.25,0.5,0.1,1,0.3270790390088223
88,213,FarLowWide,0.03,0.25,0.5,0.039810717055349706,0,0.3140299320075428
88,214,FarHighWide,0.5,0.25,0.03,0.03162277660168378,1,0.344058054004563
88,215,ThreeLinesControl,0.0,0.0,0.1,0.050118723362727206,1,0.3345251700084191
88,216,ThreeLinesControl,0.0,0.0,0.1,0.039810717055349706,1,0.3155246810056269
88,217,FarLowNarrow,0.1,0.15,0.2,0.019952623149688785,1,0.2657462890056195
88,218,FarHighNarrow,0.2,0.15,0.1,0.012589254117941663,1,0.24777899199398234
88,219,FarLowNarrow,0.1,0.15,0.2,0.015848931924611124,0,0.2858879729901673
88,220,ThreeLinesControl,0.0,0.0,0.1,0.03162277660168378,1,0.47601583899813704
88,221,FarHighWide,0.5,0.25,0.03,0.025118864315095787,1,0.3863149780081585
88,222,FarHighWide,0.5,0.25,0.03,0.019952623149688785,1,0.36850883199076634
88,223,FarHighWide,0.5,0.25,0.03,0.015848931924611124,1,0.2552681660017697
88,224,Constant,0.1,0.1,0.1,0.009999999999999995,1,0.22634414800268132
88,225,ThreeLinesControl,0.0,0.0,0.1,0.025118864315095787,0,0.11300317000132054
88,226,ThreeLinesControl,0.0,0.0,0.1,0.03162277660168378,0,0.21408940899709705
88,227,FarLowWide,0.03,0.25,0.5,0.050118723362727206,1,0.08998410699132364
88,228,Constant,0.1,0.1,0.1,0.00794328234724281,1,0.17644286098948214
88,229,ThreeLinesControl,0.0,0.0,0.1,0.039810717055349706,1,0.3874289340019459
88,230,FarHighWide,0.5,0.25,0.03,0.012589254117941663,0,0.23369762499351054
88,231,FarLowWide_null,0.03,0.25,0.5,0.07943282347242815,1,0.42298432599636726
88,232,FarHighNarrow,0.2,0.15,0.1,0.009999999999999992,0,0.5099898210028186
88,233,FarHighNarrow,0.2,0.15,0.1,0.012589254117941663,0,0.5391777730110334
88,234,ThreeLinesControl,0.0,0.0,0.1,0.03162277660168378,1,0.561282733004191
88,235,FarLowNarrow,0.1,0.15,0.2,0.019952623149688785,1,0.4072361229918897
88,236,FarHighWide,0.5,0.25,0.03,0.015848931924611124,0,0.34134015199379064
88,237,Constant_null,0.1,0.1,0.1,0.03981071705534971,1,0.4916378110065125
88,238,FarHighNarrow,0.2,0.15,0.1,0.015848931924611124,1,0.24177057499764487
88,239,FarHighWide,0.5,0.25,0.03,0.019952623149688785,0,0.4090164730005199
88,240,ThreeLinesControl,0.0,0.0,0.1,0.025118864315095787,0,0.6255264439969324
88,241,FarHighNarrow,0.2,0.15,0.1,0.012589254117941663,0,0.35979047500586603
88,242,FarHighWide,0.5,0.25,0.03,0.025118864315095787,0,0.32479424100893084
88,243,FarHighWide,0.5,0.25,0.03,0.03162277660168378,0,0.25085592998948414
88,244,FarHighNarrow,0.2,0.15,0.1,0.015848931924611124,0,0.24975996000284795
88,245,FarHighNarrow,0.2,0.15,0.1,0.019952623149688785,0,0.3213417929946445
88,246,ThreeLinesControl,0.0,0.0,0.1,0.03162277660168378,0,0.49488132799160667
88,247,FarHighNarrow,0.2,0.15,0.1,0.025118864315095787,0,0.33057407999876887
88,248,FarHighNarrow,0.2,0.15,0.1,0.03162277660168378,1,0.27250988699961454
88,249,FarLowNarrow,0.1,0.15,0.2,0.015848931924611124,0,0.38191718100279104
88,250,ThreeLinesControl,0.0,0.0,0.1,0.039810717055349706,0,0.3382041190052405
88,251,FarHighNarrow,0.2,0.15,0.1,0.025118864315095787,0,0.33504371299932245
88,252,Constant,0.1,0.1,0.1,0.0063095734448019285,0,0.2993371129996376
88,253,FarHighNarrow,0.2,0.15,0.1,0.03162277660168378,1,0.4174233920057304
88,254,ThreeLinesControl,0.0,0.0,0.1,0.050118723362727206,1,0.2798987160058459
88,255,FarHighNarrow,0.2,0.15,0.1,0.025118864315095787,1,0.27795346500352025
88,256,Constant,0.1,0.1,0.1,0.00794328234724281,0,0.32311382300395053
88,257,FarLowWide,0.03,0.25,0.5,0.039810717055349706,1,0.5049846809997689
88,258,FarLowNarrow_null,0.1,0.15,0.2,0.07943282347242815,1,0.3442738459998509
88,259,Constant,0.1,0.1,0.1,0.009999999999999995,0,0.32590189900656696
88,260,ThreeLinesControl,0.0,0.0,0.1,0.039810717055349706,0,0.31654589899699204
88,261,FarHighWide,0.5,0.25,0.03,0.039810717055349706,0,0.5717062010080554
88,262,FarLowWide,0.03,0.25,0.5,0.03162277660168378,0,0.46630940500472207
88,263,FarHighWide_null,0.5,0.25,0.03,0.07943282347242815,0,0.33275696299097035
88,264,FarHighNarrow,0.2,0.15,0.1,0.019952623149688785,0,0.2749037820030935
88,265,FarHighNarrow,0.2,0.15,0.1,0.025118864315095787,0,0.36133296399202663
88,266,FarHighWide,0.5,0.25,0.03,0.050118723362727206,0,0.3083111019950593
88,267,FarLowWide,0.03,0.25,0.5,0.039810717055349706,1,0.2334927230112953
88,268,ThreeLinesControl,0.0,0.0,0.1,0.050118723362727206,1,0.19139891900704242
88,269,FarLowWide,0.03,0.25,0.5,0.03162277660168378,0,0.4278401589981513
88,270,FarLowNarrow,0.1,0.15,0.2,0.019952623149688785,0,0.40189860700047575
88,271,FarLowNarrow,0.1,0.15,0.2,0.025118864315095787,1,0.22390119700867217
88,272,FarHighNarrow,0.2,0.15,0.1,0.03162277660168378,1,0.26229784899624065
88,273,FarHighNarrow,0.2,0.15,0.1,0.025118864315095787,1,0.3485756529989885
88,274,ThreeLinesControl,0.0,0.0,0.1,0.039810717055349706,0,0.3545145230018534
88,275,ThreeLinesControl,0.0,0.0,0.1,0.050118723362727206,1,0.3709033250052016
88,276,Constant,0.1,0.1,0.1,0.012589254117941666,1,0.2866799049952533
88,277,FarLowNarrow,0.1,0.15,0.2,0.019952623149688785,0,0.4140553990000626
88,278,FarHighWide,0.5,0.25,0.03,0.0630957344480193,1,0.33304106899595354
88,279,FarLowNarrow,0.1,0.15,0.2,0.025118864315095787,0,0.3478242190030869
88,280,FarHighNarrow,0.2,0.15,0.1,0.019952623149688785,0,0.42980104801245034
88,281,FarHighWide,0.5,0.25,0.03,0.050118723362727206,0,0.33973159099696204
88,282,FarHighWide,0.5,0.25,0.03,0.0630957344480193,1,0.26302280100935604
88,283,FarLowWide,0.03,0.25,0.5,0.039810717055349706,1,0.2608470080012921
88,284,FarLowWide,0.03,0.25,0.5,0.03162277660168378,1,0.2588462270068703
88,285,FarLowWide,0.03,0.25,0.5,0.025118864315095787,0,0.2708139280002797
88,286,FarHighWide,0.5,0.25,0.03,0.050118723362727206,1,0.4132841090031434
88,287,Constant,0.1,0.1,0.1,0.009999999999999995,1,0.3795157319982536
88,288,FarHighWide,0.5,0.25,0.03,0.039810717055349706,1,0.4733859670086531
88,289,FarHighNarrow,0.2,0.15,0.1,0.025118864315095787,1,0.47069035800814163
88,290,FarHighNarrow_null,0.2,0.15,0.1,0.05011872336272722,1,0.36573965700517874
88,291,FarHighNarrow,0.2,0.15,0.1,0.019952623149688785,0,0.5312422919960227
88,292,Constant,0.1,0.1,0.1,0.00794328234724281,0,0.38749493200157303
88,293,FarLowWide,0.03,0.25,0.5,0.03162277660168378,0,0.32110322199878283
88,294,Constant,0.1,0.1,0.1,0.009999999999999995,0,0.33561561099486426
88,295,FarLowNarrow,0.1,0.15,0.2,0.03162277660168378,0,99
88,296,ThreeLinesControl_null,0.0,0.0,0.1,0.05011872336272722,0,0.09565334899525624
88,297,FarHighWide,0.5,0.25,0.03,0.03162277660168378,0,0.3739213840017328
88,298,FarHighNarrow_null,0.2,0.15,0.1,0.03981071705534971,1,0.22087019099853933
88,299,FarLowNarrow,0.1,0.15,0.2,0.039810717055349706,0,0.24709995799639728
88,300,FarHighWide,0.5,0.25,0.03,0.039810717055349706,1,0.13337902100465726
88,301,FarLowWide,0.03,0.25,0.5,0.039810717055349706,0,0.0734226269996725
88,302,ThreeLinesControl,0.0,0.0,0.1,0.039810717055349706,1,0.2235323830100242
88,303,FarHighNarrow_null,0.2,0.15,0.1,0.031622776601683784,1,0.26984462499967776
88,304,FarLowWide,0.03,0.25,0.5,0.050118723362727206,0,0.33937752500060014
88,305,FarLowNarrow,0.1,0.15,0.2,0.050118723362727206,1,0.31417927199800033
88,306,Constant,0.1,0.1,0.1,0.012589254117941666,0,0.23231924600258935
88,307,Constant,0.1,0.1,0.1,0.015848931924611127,1,0.17646261099434923
88,308,FarLowNarrow,0.1,0.15,0.2,0.039810717055349706,1,0.3186369269969873
88,309,Constant,0.1,0.1,0.1,0.012589254117941666,0,0.3706449640012579
88,310,FarLowNarrow_null,0.1,0.15,0.2,0.06309573444801932,0,0.17135081000742503
88,311,Constant,0.1,0.1,0.1,0.015848931924611127,0,0.35396899899933487
88,312,FarLowWide,0.03,0.25,0.5,0.0630957344480193,1,0.32433343199954834
88,313,Constant,0.1,0.1,0.1,0.01995262314968879,0,0.32992795199970715
88,314,FarLowNarrow,0.1,0.15,0.2,0.03162277660168378,0,0.256337305996567
88,315,FarHighWide,0.5,0.25,0.03,0.03162277660168378,0,0.28373869200004265
88,316,FarLowWide_null,0.03,0.25,0.5,0.06309573444801932,0,0.2727666459977627
88,317,FarHighNarrow,0.2,0.15,0.1,0.025118864315095787,0,0.3108725580095779
88,318,FarHighNarrow,0.2,0.15,0.1,0.03162277660168378,0,0.348190381002496
88,319,Constant,0.1,0.1,0.1,0.025118864315095794,0,0.3938537659996655
88,320,Constant,0.1,0.1,0.1,0.031622776601683784,0,0.3680900049948832
88,321,FarLowNarrow,0.1,0.15,0.2,0.039810717055349706,1,0.4945989280095091
88,322,FarHighWide,0.5,0.25,0.03,0.039810717055349706,1,0.46778916400216985
88,323,FarLowNarrow,0.1,0.15,0.2,0.03162277660168378,1,0.3067477599979611
88,324,FarHighNarrow_null,0.2,0.15,0.1,0.02511886431509579,0,0.22591156100679655
88,325,Constant,0.1,0.1,0.1,0.03981071705534971,1,0.30502626800443977
88,326,FarLowWide_null,0.03,0.25,0.5,0.07943282347242814,1,0.3188048960000742
88,327,ThreeLinesControl,0.0,0.0,0.1,0.03162277660168378,1,0.5097653349948814
88,328,FarHighWide_null,0.5,0.25,0.03,0.1,0,0.3832787560095312
88,329,ThreeLinesControl,0.0,0.0,0.1,0.025118864315095787,1,0.4047672339947894
88,330,FarHighWide,0.5,0.25,0.03,0.03162277660168378,0,0.5067579120077426
88,331,FarLowNarrow,0.1,0.15,0.2,0.025118864315095787,1,0.31083524800487794
88,332,FarHighWide,0.5,0.25,0.03,0.039810717055349706,1,0.3321867420017952
88,333,FarLowNarrow,0.1,0.15,0.2,0.019952623149688785,1,0.10659955799928866
88,334,FarLowNarrow,0.1,0.15,0.2,0.015848931924611124,0,0.3272527910012286
88,335,FarHighWide_null,0.5,0.25,0.03,0.1,0,0.28579215799982194
88,336,Constant,0.1,0.1,0.1,0.031622776601683784,0,0.17152931599412113
88,337,FarLowWide,0.03,0.25,0.5,0.050118723362727206,1,0.05787338600202929
88,338,FarHighWide,0.5,0.25,0.03,0.03162277660168378,1,0.15899517099023797
88,339,FarHighWide,0.5,0.25,0.03,0.025118864315095787,1,0.14968904499255586
88,340,FarHighWide,0.5,0.25,0.03,0.019952623149688785,1,0.4283832670043921
88,341,FarHighWide,0.5,0.25,0.03,0.015848931924611124,0,0.3732674179918831
88,342,FarLowWide,0.03,0.25,0.5,0.039810717055349706,0,0.24736349600425456
88,343,FarHighWide,0.5,0.25,0.03,0.019952623149688785,0,0.26942926600167993
88,344,FarLowNarrow,0.1,0.15,0.2,0.019952623149688785,1,0.09178574700490572
88,345,FarHighNarrow,0.2,0.15,0.1,0.039810717055349706,1,0.37482541499775834
88,346,ThreeLinesControl,0.0,0.0,0.1,0.019952623149688785,0,0.42080089800583664
88,347,ThreeLinesControl_null,0.0,0.0,0.1,0.06309573444801932,1,0.3204737070045667
88,348,FarHighNarrow_null,0.2,0.15,0.1,0.031622776601683784,0,0.3341021579981316
88,349,FarLowNarrow,0.1,0.15,0.2,0.015848931924611124,0,0.267833381993114
88,350,FarLowNarrow,0.1,0.15,0.2,0.019952623149688785,0,0.32148455300193746
88,351,FarLowWide,0.03,0.25,0.5,0.050118723362727206,0,0.35901450700475834
88,352,FarLowNarrow,0.1,0.15,0.2,0.025118864315095787,0,0.3890653100097552
88,353,FarLowNarrow_null,0.1,0.15,0.2,0.07943282347242814,1,0.299287314992398
88,354,FarHighWide,0.5,0.25,0.03,0.025118864315095787,0,0.42585307800618466
88,355,FarLowWide,0.03,0.25,0.5,0.0630957344480193,1,0.4164382290036883
88,356,FarHighWide,0.5,0.25,0.03,0.03162277660168378,0,0.31862554300460033
88,357,FarHighNarrow,0.2,0.15,0.1,0.03162277660168378,0,0.35759676700399723
88,358,Constant,0.1,0.1,0.1,0.03981071705534971,1,0.49144519699621014
88,359,ThreeLinesControl,0.0,0.0,0.1,0.025118864315095787,0,0.3909435020032106
88,360,FarLowNarrow,0.1,0.15,0.2,0.03162277660168378,1,0.6238095959997736
88,361,FarHighNarrow,0.2,0.15,0.1,0.039810717055349706,1,0.34332457499112934
88,362,FarHighWide,0.5,0.25,0.03,0.039810717055349706,0,0.3144800000009127
88,363,FarLowWide,0.03,0.25,0.5,0.050118723362727206,0,0.520606983001926
88,364,FarLowNarrow,0.1,0.15,0.2,0.025118864315095787,1,0.3585945490049198
88,365,ThreeLinesControl_null,0.0,0.0,0.1,0.05011872336272722,1,0.5775064820045372
88,366,ThreeLinesControl,0.0,0.0,0.1,0.03162277660168378,1,0.43986692299949937
88,367,ThreeLinesControl,0.0,0.0,0.1,0.025118864315095787,0,0.5181409880024148
88,368,Constant,0.1,0.1,0.1,0.031622776601683784,0,0.4734021509939339
88,369,FarHighNarrow_null,0.2,0.15,0.1,0.03981071705534971,1,0.3514156000019284
88,370,FarHighWide,0.5,0.25,0.03,0.050118723362727206,1,0.5644137109920848
88,371,FarLowWide,0.03,0.25,0.5,0.0630957344480193,1,0.3546731750102481
88,372,ThreeLinesControl,0.0,0.0,0.1,0.03162277660168378,1,0.3366364009998506
88,373,FarHighNarrow,0.2,0.15,0.1,0.03162277660168378,1,0.32701082799758296
88,374,FarLowNarrow,0.1,0.15,0.2,0.019952623149688785,0,0.3569373849895783
88,375,FarLowWide,0.03,0.25,0.5,0.050118723362727206,1,0.6101687869959278
88,376,FarHighNarrow,0.2,0.15,0.1,0.025118864315095787,0,0.44940846200915985
88,377,ThreeLinesControl,0.0,0.0,0.1,0.025118864315095787,1,0.48851928500516806
88,378,FarHighNarrow,0.2,0.15,0.1,0.03162277660168378,1,0.358553864993155
88,379,Constant,0.1,0.1,0.1,0.03981071705534971,1,0.24247954100428615
88,380,FarLowWide,0.03,0.25,0.5,0.039810717055349706,0,0.42378971599100623
88,381,FarHighNarrow,0.2,0.15,0.1,0.025118864315095787,1,0.2521114240080351
88,382,FarHighNarrow,0.2,0.15,0.1,0.019952623149688785,0,0.3529999919992406
88,383,ThreeLinesControl,0.0,0.0,0.1,0.019952623149688785,0,0.3355724129942246
88,384,ThreeLinesControl,0.0,0.0,0.1,0.025118864315095787,0,0.29038068099180236
88,385,FarHighWide,0.5,0.25,0.03,0.039810717055349706,1,0.248650812995038
88,386,FarHighWide,0.5,0.25,0.03,0.03162277660168378,0,0.26250454199907836
88,387,FarLowNarrow,0.1,0.15,0.2,0.025118864315095787,0,0.41214509500423446
88,388,FarHighNarrow,0.2,0.15,0.1,0.025118864315095787,0,0.37867161400208715
88,389,ThreeLinesControl,0.0,0.0,0.1,0.03162277660168378,0,0.2239895609964151
88,390,FarLowNarrow,0.1,0.15,0.2,0.03162277660168378,0,99
88,391,Constant,0.1,0.1,0.1,0.031622776601683784,0,0.27683059401169885
88,392,Constant,0.1,0.1,0.1,0.03981071705534971,0,0.3076725420105504
88,393,FarHighNarrow_null,0.2,0.15,0.1,0.031622776601683784,0,99
88,394,FarHighWide,0.5,0.25,0.03,0.039810717055349706,0,0.28862131100322586
88,395,FarLowNarrow,0.1,0.15,0.2,0.039810717055349706,1,0.31627547400421463
88,396,FarLowWide_null,0.03,0.25,0.5,0.06309573444801932,1,0.25830872799269855
88,397,FarLowWide,0.03,0.25,0.5,0.050118723362727206,0,0.3657759669877123
88,398,ThreeLinesControl_null,0.0,0.0,0.1,0.03981071705534971,1,0.31574132401146926
88,399,ThreeLinesControl,0.0,0.0,0.1,0.039810717055349706,1,0.46505575500486884
88,400,FarLowWide,0.03,0.25,0.5,0.0630957344480193,0,0.3249978370004101
88,401,FarLowWide,0.03,0.25,0.5,0.07943282347242812,0,0.36303649000183214
88,402,FarLowWide,0.03,0.25,0.5,0.09999999999999998,0,0.2730361029971391
88,403,FarLowNarrow_null,0.1,0.15,0.2,0.06309573444801932,1,0.6065013600018574
88,404,FarLowWide,0.03,0.25,0.5,0.1,1,0.572511131002102
88,405,FarLowWide,0.03,0.25,0.5,0.07943282347242815,1,0.2983153899986064
88,406,FarHighNarrow,0.2,0.15,0.1,0.03162277660168378,1,0.2407272910058964
88,407,FarLowNarrow,0.1,0.15,0.2,0.03162277660168378,0,0.27082750700355973
88,408,FarHighNarrow,0.2,0.15,0.1,0.025118864315095787,1,0.3499336399981985
88,409,ThreeLinesControl_null,0.0,0.0,0.1,0.031622776601683784,1,0.33184363300097175
88,410,Constant,0.1,0.1,0.1,0.05011872336272721,1,0.20253178299753927
88,411,FarLowWide,0.03,0.25,0.5,0.06309573444801932,1,0.2856147339916788
88,412,FarHighWide,0.5,0.25,0.03,0.050118723362727206,1,0.22760171299159992
88,413,FarLowNarrow,0.1,0.15,0.2,0.039810717055349706,1,0.21782723200158216
88,414,FarLowWide,0.03,0.25,0.5,0.05011872336272722,1,0.28465443800087087
88,415,Constant,0.1,0.1,0.1,0.03981071705534971,0,99
88,416,FarHighWide,0.5,0.25,0.03,0.039810717055349706,0,0.3431283899990376
88,417,FarLowNarrow_null,0.1,0.15,0.2,0.05011872336272722,0,0.1723327590007102
88,418,FarLowNarrow,0.1,0.15,0.2,0.03162277660168378,0,0.28246627299813554
88,419,FarHighNarrow,0.2,0.15,0.1,0.019952623149688785,1,0.27258091799740214
88,420,Constant,0.1,0.1,0.1,0.05011872336272721,0,0.383031754012336
88,421,Constant,0.1,0.1,0.1,0.0630957344480193,0,0.3167429299937794
88,422,FarLowWide,0.03,0.25,0.5,0.03981071705534971,1,0.2752794459956931
88,423,FarHighNarrow,0.2,0.15,0.1,0.015848931924611124,1,0.36832665899419226
88,424,Constant_null,0.1,0.1,0.1,0.031622776601683784,1,0.319636503001675
88,425,FarLowWide,0.03,0.25,0.5,0.031622776601683784,1,0.358248115007882
88,426,FarHighWide,0.5,0.25,0.03,0.050118723362727206,1,0.5088943989976542
88,427,FarLowWide,0.03,0.25,0.5,0.02511886431509579,0,0.3436905809940072
88,428,FarHighNarrow,0.2,0.15,0.1,0.012589254117941663,0,0.5017928580055013
88,429,FarLowWide,0.03,0.25,0.5,0.031622776601683784,1,0.3321070270030759
88,430,FarLowNarrow,0.1,0.15,0.2,0.039810717055349706,1,0.28665706899482757
88,431,FarHighWide,0.5,0.25,0.03,0.039810717055349706,0,0.26836642500711605
88,432,FarLowWide,0.03,0.25,0.5,0.02511886431509579,1,0.2907833889912581
88,433,FarLowNarrow_null,0.1,0.15,0.2,0.06309573444801932,1,0.43855514100869186
88,434,ThreeLinesControl,0.0,0.0,0.1,0.03162277660168378,1,0.4052049949968932
88,435,FarLowWide,0.03,0.25,0.5,0.01995262314968879,0,0.41118908100179397
88,436,FarHighWide,0.5,0.25,0.03,0.050118723362727206,0,0.3603400559950387
88,437,FarLowWide,0.03,0.25,0.5,0.025118864315095794,0,0.3506323430046905
88,438,FarLowWide,0.03,0.25,0.5,0.031622776601683784,1,0.2764047259988729
88,439,FarLowWide,0.03,0.25,0.5,0.02511886431509579,0,0.3411128540028585
88,440,FarHighNarrow,0.2,0.15,0.1,0.015848931924611124,1,0.29704217000107747
88,441,Constant,0.1,0.1,0.1,0.07943282347242812,1,0.23206912699970417
88,442,FarLowWide,0.03,0.25,0.5,0.031622776601683784,0,0.27923520900367294
88,443,Constant,0.1,0.1,0.1,0.0630957344480193,1,0.14892387299914844
88,444,Constant_null,0.1,0.1,0.1,0.02511886431509579,1,0.3765039090067148
88,445,ThreeLinesControl,0.0,0.0,0.1,0.025118864315095787,0,0.31852920800156426
88,446,ThreeLinesControl,0.0,0.0,0.1,0.03162277660168378,1,0.18568002901156433
88,447,FarHighNarrow_null,0.2,0.15,0.1,0.03981071705534971,1,0.3745641989953583
88,448,FarLowWide,0.03,0.25,0.5,0.03981071705534971,1,0.3889263700111769
88,449,FarLowNarrow,0.1,0.15,0.2,0.03162277660168378,1,0.5449705869978061
88,450,FarHighNarrow,0.2,0.15,0.1,0.012589254117941663,0,0.5032741489994805
88,451,FarHighWide,0.5,0.25,0.03,0.0630957344480193,1,0.22923413100943435
88,452,FarHighNarrow,0.2,0.15,0.1,0.015848931924611124,1,0.37944340200920124
88,453,FarLowNarrow,0.1,0.15,0.2,0.025118864315095787,1,0.3135692450014176
88,454,ThreeLinesControl,0.0,0.0,0.1,0.025118864315095787,0,0.3842343080032151
88,455,FarHighWide_null,0.5,0.25,0.03,0.1,1,0.3512811469990993
88,456,FarLowNarrow_null,0.1,0.15,0.2,0.05011872336272722,1,0.3249979039974278
88,457,FarHighNarrow_null,0.2,0.15,0.1,0.031622776601683784,1,0.29238005899242125
88,458,FarHighNarrow,0.2,0.15,0.1,0.012589254117941663,0,0.30654828100523446
88,459,FarLowNarrow,0.1,0.15,0.2,0.019952623149688785,0,0.3053675690025557
88,460,Constant,0.1,0.1,0.1,0.050118723362727206,0,0.29172742400260177
88,461,FarLowNarrow,0.1,0.15,0.2,0.025118864315095787,0,0.32963608000136446
88,462,FarLowWide,0.03,0.25,0.5,0.031622776601683784,1,0.0799348800064763
88,463,FarHighNarrow,0.2,0.15,0.1,0.015848931924611124,1,0.2029499170021154
88,464,FarLowNarrow,0.1,0.15,0.2,0.03162277660168378,0,0.29713501599326264
88,465,FarLowWide,0.03,0.25,0.5,0.02511886431509579,0,0.27735549298813567
88,466,FarHighNarrow,0.2,0.15,0.1,0.012589254117941663,1,0.33154469200235326
88,467,ThreeLinesControl,0.0,0.0,0.1,0.03162277660168378,0,0.2738589140062686
88,468,Constant_null,0.1,0.1,0.1,0.01995262314968879,1,0.35894668400578666
88,469,ThreeLinesControl_null,0.0,0.0,0.1,0.02511886431509579,1,0.4377644159976626
88,470,FarLowWide,0.03,0.25,0.5,0.031622776601683784,1,0.3634290389891248
88,471,ThreeLinesControl,0.0,0.0,0.1,0.039810717055349706,1,0.16220271500060335
88,472,Constant,0.1,0.1,0.1,0.0630957344480193,1,0.28830885599018075
88,473,FarHighWide,0.5,0.25,0.03,0.050118723362727206,0,0.3438648279989138
88,474,Constant,0.1,0.1,0.1,0.050118723362727206,0,0.44472546299220994
88,475,FarHighWide,0.5,0.25,0.03,0.0630957344480193,0,99
88,476,FarHighWide,0.5,0.25,0.03,0.07943282347242812,1,0.3418497780075995
88,477,Constant,0.1,0.1,0.1,0.0630957344480193,1,0.2841283099987777
88,478,FarHighNarrow,0.2,0.15,0.1,0.009999999999999992,0,0.29809882800327614
88,479,ThreeLinesControl,0.0,0.0,0.1,0.03162277660168378,0,0.3498003749991767
88,480,ThreeLinesControl,0.0,0.0,0.1,0.039810717055349706,0,0.7015238969906932
88,481,FarHighNarrow,0.2,0.15,0.1,0.012589254117941663,0,0.4365262579958653
88,482,FarLowNarrow_null,0.1,0.15,0.2,0.03981071705534971,1,0.2946034540073015
88,483,FarLowWide,0.03,0.25,0.5,0.02511886431509579,0,0.29158640300738625
88,484,FarLowNarrow,0.1,0.15,0.2,0.039810717055349706,0,0.32193007999740075
88,485,FarLowWide,0.03,0.25,0.5,0.031622776601683784,0,0.3647781480103731
88,486,FarHighWide_null,0.5,0.25,0.03,0.07943282347242815,1,0.41927889600628987
88,487,FarHighNarrow,0.2,0.15,0.1,0.015848931924611124,0,0.3123507209966192
88,488,FarLowWide,0.03,0.25,0.5,0.03981071705534971,1,0.39032567699905485
88,489,FarHighWide,0.5,0.25,0.03,0.0630957344480193,0,0.35579481000604574
88,490,FarLowNarrow,0.1,0.15,0.2,0.050118723362727206,1,0.7136736690008547
88,491,FarHighWide_null,0.5,0.25,0.03,0.06309573444801932,1,0.4636020979960449
88,492,FarHighNarrow,0.2,0.15,0.1,0.019952623149688785,0,0.414233558010892
88,493,FarLowNarrow,0.1,0.15,0.2,0.039810717055349706,1,0.726735374002601
88,494,FarHighWide,0.5,0.25,0.03,0.07943282347242812,1,0.34823661799600814
88,495,ThreeLinesControl,0.0,0.0,0.1,0.050118723362727206,0,0.3716161789925536
88,496,FarLowWide,0.03,0.25,0.5,0.031622776601683784,0,0.40872293400752824
88,497,FarHighWide,0.5,0.25,0.03,0.0630957344480193,0,0.4379218769900035
88,498,FarLowWide,0.03,0.25,0.5,0.03981071705534971,0,0.35299517899693456
88,499,FarHighWide,0.5,0.25,0.03,0.07943282347242812,1,0.32600381699739955
88,500,FarHighNarrow,0.2,0.15,0.1,0.025118864315095787,0,0.4762997639918467
88,501,FarLowNarrow_null,0.1,0.15,0.2,0.031622776601683784,1,0.31928573799086735
88,502,FarLowNarrow,0.1,0.15,0.2,0.03162277660168378,1,0.36547249600698706
88,503,FarLowWide,0.03,0.25,0.5,0.05011872336272721,1,0.27610301799722947
88,504,ThreeLinesControl,0.0,0.0,0.1,0.0630957344480193,1,0.2805880090018036
88,505,FarHighNarrow,0.2,0.15,0.1,0.03162277660168378,0,0.36683994298800826
88,506,ThreeLinesControl,0.0,0.0,0.1,0.050118723362727206,0,0.7890390749962535
88,507,FarHighWide,0.5,0.25,0.03,0.0630957344480193,1,0.7941734889900545
88,508,FarHighNarrow,0.2,0.15,0.1,0.039810717055349706,1,0.2561408740002662
88,509,FarLowWide,0.03,0.25,0.5,0.03981071705534971,1,0.25695679799537174
88,510,Constant,0.1,0.1,0.1,0.050118723362727206,1,0.39029639201180544
88,511,FarHighNarrow,0.2,0.15,0.1,0.03162277660168378,1,0.3499617350025801
88,512,FarHighWide,0.5,0.25,0.03,0.050118723362727206,1,0.2578941280080471
88,513,Constant,0.1,0.1,0.1,0.039810717055349706,1,0.24766511099005584
88,514,FarLowWide,0.03,0.25,0.5,0.031622776601683784,1,0.22736602199438494
88,515,FarLowNarrow,0.1,0.15,0.2,0.025118864315095787,0,0.3374036780005554
88,516,FarLowNarrow,0.1,0.15,0.2,0.03162277660168378,1,0.3746750440041069
88,517,FarHighNarrow,0.2,0.15,0.1,0.025118864315095787,1,0.3147753030061722
88,518,FarHighWide,0.5,0.25,0.03,0.039810717055349706,1,0.36783444799948484
88,519,ThreeLinesControl,0.0,0.0,0.1,0.0630957344480193,1,0.2779493470006855
88,520,ThreeLinesControl,0.0,0.0,0.1,0.050118723362727206,1,0.2189586460008286
88,521,FarLowNarrow,0.1,0.15,0.2,0.025118864315095787,1,0.28989173599984497
88,522,ThreeLinesControl,0.0,0.0,0.1,0.039810717055349706,1,0.2393617399939103
88,523,FarHighWide,0.5,0.25,0.03,0.03162277660168378,1,0.22972943999047857
88,524,FarHighWide,0.5,0.25,0.03,0.025118864315095787,1,0.3077154610073194
88,525,FarLowNarrow,0.1,0.15,0.2,0.019952623149688785,1,0.2975675249908818
88,526,FarLowNarrow,0.1,0.15,0.2,0.015848931924611124,0,0.3457353569974657
88,527,Constant,0.1,0.1,0.1,0.03162277660168378,1,0.48012433099211194
88,528,Constant,0.1,0.1,0.1,0.025118864315095787,0,0.3565522920107469
88,529,Constant,0.1,0.1,0.1,0.03162277660168378,1,0.44246022700099275
88,530,FarHighNarrow_null,0.2,0.15,0.1,0.02511886431509579,0,0.3287832859932678
88,531,ThreeLinesControl,0.0,0.0,0.1,0.03162277660168378,1,0.3237237920111511
88,532,FarHighNarrow,0.2,0.15,0.1,0.019952623149688785,0,0.5610468119994039
88,533,FarHighWide_null,0.5,0.25,0.03,0.05011872336272722,1,0.3483362889965065
88,534,FarHighWide,0.5,0.25,0.03,0.019952623149688785,0,0.46608519200526644
88,535,ThreeLinesControl,0.0,0.0,0.1,0.025118864315095787,1,0.17621283599874005
88,536,ThreeLinesControl,0.0,0.0,0.1,0.019952623149688785,1,0.357356438995339
88,537,FarHighNarrow,0.2,0.15,0.1,0.025118864315095787,1,0.2918299800076056
88,538,FarHighWide,0.5,0.25,0.03,0.025118864315095787,1,0.3616315899998881
88,539,ThreeLinesControl,0.0,0.0,0.1,0.015848931924611124,0,0.2156999669969082
88,540,FarLowNarrow,0.1,0.15,0.2,0.019952623149688785,0,0.26180903999193106
88,541,FarHighWide,0.5,0.25,0.03,0.019952623149688785,0,0.35509040000033565
88,542,FarLowWide,0.03,0.25,0.5,0.02511886431509579,0,0.33019247799529694
88,543,FarLowWide,0.03,0.25,0.5,0.031622776601683784,0,0.28978655399987474
88,544,ThreeLinesControl,0.0,0.0,0.1,0.019952623149688785,0,0.3818178220099071
88,545,ThreeLinesControl,0.0,0.0,0.1,0.025118864315095787,0,0.34002318800776266
88,546,FarHighNarrow,0.2,0.15,0.1,0.019952623149688785,1,0.39297874199110083
88,547,ThreeLinesControl,0.0,0.0,0.1,0.03162277660168378,0,0.32420828301110305
88,548,FarHighNarrow,0.2,0.15,0.1,0.015848931924611124,1,0.3702067980048014
88,549,FarHighNarrow,0.2,0.15,0.1,0.012589254117941663,0,0.2642905160028022
88,550,Constant,0.1,0.1,0.1,0.025118864315095787,0,0.2756288869859418
88,551,FarHighNarrow,0.2,0.15,0.1,0.015848931924611124,0,0.3377740319992881
88,552,FarHighNarrow,0.2,0.15,0.1,0.019952623149688785,0,0.3028516269987449
88,553,FarLowNarrow,0.1,0.15,0.2,0.025118864315095787,0,0.34094959498906974
88,554,FarHighNarrow,0.2,0.15,0.1,0.025118864315095787,0,0.33941827599483076
88,555,ThreeLinesControl,0.0,0.0,0.1,0.039810717055349706,0,0.321387838004739
88,556,Constant,0.1,0.1,0.1,0.03162277660168378,0,0.31176206599047873
88,557,FarHighNarrow,0.2,0.15,0.1,0.03162277660168378,0,0.27767174900509417
88,558,ThreeLinesControl_null,0.0,0.0,0.1,0.01995262314968879,1,0.39666082500480115
88,559,FarHighWide,0.5,0.25,0.03,0.025118864315095787,0,0.4189942349912599
88,560,Constant,0.1,0.1,0.1,0.039810717055349706,0,0.5384554250049405
88,561,FarHighWide,0.5,0.25,0.03,0.03162277660168378,0,0.44511298299767077
88,562,Constant,0.1,0.1,0.1,0.050118723362727206,0,0.37159869199967943
88,563,FarHighWide,0.5,0.25,0.03,0.039810717055349706,1,0.34263978600210976
88,564,FarLowWide,0.03,0.25,0.5,0.03981071705534971,1,0.4040882699919166
88,565,Constant,0.1,0.1,0.1,0.0630957344480193,1,0.44985950099362526
88,566,FarLowNarrow,0.1,0.15,0.2,0.03162277660168378,1,0.48502585099777207
88,567,Constant,0.1,0.1,0.1,0.050118723362727206,1,0.6430261740024434
88,568,FarLowNarrow,0.1,0.15,0.2,0.025118864315095787,1,0.37755049200495705
88,569,Constant,0.1,0.1,0.1,0.039810717055349706,1,0.3030030060035642
88,570,Constant_null,0.1,0.1,0.1,0.015848931924611127,1,0.48534065899730194
88,571,FarHighNarrow,0.2,0.15,0.1,0.039810717055349706,0,0.41169192700181156
88,572,FarLowWide,0.03,0.25,0.5,0.031622776601683784,0,0.6258864880073816
88,573,FarLowWide,0.03,0.25,0.5,0.03981071705534971,1,0.30325604100653436
88,574,ThreeLinesControl,0.0,0.0,0.1,0.050118723362727206,1,0.3495990010123933
88,575,FarHighWide,0.5,0.25,0.03,0.03162277660168378,0,0.5801901910017477
88,576,FarLowNarrow,0.1,0.15,0.2,0.019952623149688785,0,0.3793042089964729
88,577,FarLowWide,0.03,0.25,0.5,0.031622776601683784,0,0.39821356799802743
88,578,FarHighWide,0.5,0.25,0.03,0.039810717055349706,1,0.28458038400276564
88,579,FarLowWide,0.03,0.25,0.5,0.03981071705534971,0,0.3437730010045925
88,580,Constant,0.1,0.1,0.1,0.03162277660168378,0,0.38995759199315216
88,581,FarLowNarrow,0.1,0.15,0.2,0.025118864315095787,1,0.34824455399939325
88,582,FarHighNarrow,0.2,0.15,0.1,0.050118723362727206,1,0.2628360729868291
88,583,ThreeLinesControl,0.0,0.0,0.1,0.039810717055349706,1,0.3173477520031156
88,584,ThreeLinesControl_null,0.0,0.0,0.1,0.015848931924611127,1,0.3957439509977121
88,585,ThreeLinesControl,0.0,0.0,0.1,0.03162277660168378,0,0.40178195299813524
88,586,ThreeLinesControl,0.0,0.0,0.1,0.039810717055349706,0,0.3519392119924305
88,587,FarLowWide,0.03,0.25,0.5,0.05011872336272721,1,0.2688995359931141
88,588,Constant,0.1,0.1,0.1,0.039810717055349706,1,0.27520864400139544
88,589,FarHighNarrow,0.2,0.15,0.1,0.039810717055349706,1,0.30535718899045605
88,590,Constant,0.1,0.1,0.1,0.03162277660168378,1,0.2808476610080106
88,591,FarLowWide,0.03,0.25,0.5,0.03981071705534971,1,0.23108475499611814
88,592,FarHighWide,0.5,0.25,0.03,0.03162277660168378,0,0.3976382679975359
88,593,FarLowWide_null,0.03,0.25,0.5,0.05011872336272722,0,0.44917881400033366
88,594,ThreeLinesControl,0.0,0.0,0.1,0.050118723362727206,1,0.30276888998923823
88,595,ThreeLinesControl,0.0,0.0,0.1,0.039810717055349706,1,0.4683166870090645
88,596,Constant,0.1,0.1,0.1,0.025118864315095787,0,0.35152134898817167
88,597,Constant,0.1,0.1,0.1,0.03162277660168378,0,0.3494145159929758
88,598,ThreeLinesControl,0.0,0.0,0.1,0.03162277660168378,1,0.2976545569981681
88,599,FarLowWide,0.03,0.25,0.5,0.031622776601683784,0,0.35876736699719913
88,600,FarLowWide,0.03,0.25,0.5,0.03981071705534971,0,0.46080029700533487
88,601,FarHighNarrow,0.2,0.15,0.1,0.03162277660168378,0,0.29871743700641673
88,602,FarHighNarrow,0.2,0.15,0.1,0.039810717055349706,0,0.21684846800053492
88,603,FarHighWide,0.5,0.25,0.03,0.039810717055349706,0,0.23683558800257742
88,604,Constant,0.1,0.1,0.1,0.039810717055349706,0,0.2745964129862841
88,605,Constant,0.1,0.1,0.1,0.050118723362727206,0,0.2963200170052005
88,606,Constant,0.1,0.1,0.1,0.0630957344480193,1,0.29459858300106134
88,607,FarLowNarrow,0.1,0.15,0.2,0.019952623149688785,0,0.3328061840002192
88,608,ThreeLinesControl,0.0,0.0,0.1,0.025118864315095787,0,0.34684323899273295
88,609,ThreeLinesControl,0.0,0.0,0.1,0.03162277660168378,0,0.3280571959912777
88,610,FarHighNarrow,0.2,0.15,0.1,0.050118723362727206,0,0.3115040419943398
88,611,FarHighWide,0.5,0.25,0.03,0.050118723362727206,1,0.374095816994668
88,612,FarHighNarrow,0.2,0.15,0.1,0.0630957344480193,0,99
88,613,FarHighNarrow,0.2,0.15,0.1,0.07943282347242812,1,0.2997627519944217
88,614,FarLowWide_null,0.03,0.25,0.5,0.06309573444801932,1,0.28553580200241413
88,615,ThreeLinesControl_null,0.0,0.0,0.1,0.012589254117941666,1,0.33975251400261186
88,616,FarLowWide,0.03,0.25,0.5,0.05011872336272721,1,0.2468857859930722
88,617,FarLowNarrow_null,0.1,0.15,0.2,0.02511886431509579,1,0.4931043270044029
88,618,FarHighWide,0.5,0.25,0.03,0.039810717055349706,1,0.4353853749926202
88,619,ThreeLinesControl,0.0,0.0,0.1,0.039810717055349706,0,0.4155458340101177
88,620,FarHighNarrow,0.2,0.15,0.1,0.0630957344480193,0,0.34170562800136395
88,621,FarHighWide,0.5,0.25,0.03,0.03162277660168378,0,99
88,622,FarLowNarrow,0.1,0.15,0.2,0.025118864315095787,1,0.4974989290058147
88,623,FarHighWide,0.5,0.25,0.03,0.039810717055349706,1,0.5187431169906631
88,624,FarLowWide_null,0.03,0.25,0.5,0.05011872336272722,1,0.46128373699320946
88,625,FarHighNarrow,0.2,0.15,0.1,0.07943282347242812,1,0.6217583580000792
88,626,FarLowNarrow,0.1,0.15,0.2,0.019952623149688785,0,0.36968409600376617
88,627,FarLowNarrow,0.1,0.15,0.2,0.025118864315095787,0,0.5287166820053244
88,628,FarHighNarrow_null,0.2,0.15,0.1,0.031622776601683784,1,0.5115668200014625
88,629,FarLowNarrow,0.1,0.15,0.2,0.03162277660168378,0,0.31009491499571595
88,630,Constant,0.1,0.1,0.1,0.050118723362727206,1,0.15188347600633278
88,631,Constant_null,0.1,0.1,0.1,0.012589254117941666,1,0.3901745189941721
88,632,FarHighNarrow,0.2,0.15,0.1,0.0630957344480193,1,0.34845346500515006
88,633,FarHighNarrow,0.2,0.15,0.1,0.050118723362727206,1,0.23955359299725387
88,634,ThreeLinesControl,0.0,0.0,0.1,0.050118723362727206,1,0.30947785900207236
88,635,Constant,0.1,0.1,0.1,0.039810717055349706,1,0.32973087701248005
88,636,FarLowNarrow,0.1,0.15,0.2,0.039810717055349706,1,0.3758860840025591
88,637,FarLowNarrow,0.1,0.15,0.2,0.03162277660168378,1,0.24593664500571322
88,638,FarHighWide,0.5,0.25,0.03,0.03162277660168378,0,0.2521915219986113
88,639,FarHighWide,0.5,0.25,0.03,0.039810717055349706,0,99
88,640,FarLowWide,0.03,0.25,0.5,0.03981071705534971,1,0.1760249590006424
88,641,FarLowNarrow,0.1,0.15,0.2,0.025118864315095787,1,0.22376351300044917
88,642,Constant,0.1,0.1,0.1,0.03162277660168378,0,99
88,643,ThreeLinesControl,0.0,0.0,0.1,0.039810717055349706,0,0.23498906299937516
88,644,ThreeLinesControl,0.0,0.0,0.1,0.050118723362727206,1,0.24253965199750382
88,645,Constant,0.1,0.1,0.1,0.039810717055349706,0,99
88,646,FarLowNarrow,0.1,0.15,0.2,0.019952623149688785,0,0.3224237300019013
88,647,Constant,0.1,0.1,0.1,0.050118723362727206,1,0.20055865100584924
88,648,FarLowWide,0.03,0.25,0.5,0.031622776601683784,0,0.3097806479927385
88,649,FarLowWide,0.03,0.25,0.5,0.03981071705534971,1,0.1379746519960463
88,650,FarHighNarrow,0.2,0.15,0.1,0.039810717055349706,1,0.3280899679957656
88,651,FarLowNarrow,0.1,0.15,0.2,0.025118864315095787,1,0.2530324719991768
88,652,FarLowNarrow,0.1,0.15,0.2,0.019952623149688785,0,0.20257937000133097
88,653,FarHighNarrow,0.2,0.15,0.1,0.03162277660168378,0,99
88,654,ThreeLinesControl,0.0,0.0,0.1,0.039810717055349706,1,0.014138939994154498
88,655,FarLowWide,0.03,0.25,0.5,0.031622776601683784,1,0.21141052000166383
88,656,ThreeLinesControl,0.0,0.0,0.1,0.03162277660168378,0,0.32980696599406656
88,657,FarHighWide_null,0.5,0.25,0.03,0.03981071705534971,1,0.4501733719953336
88,658,FarHighNarrow,0.2,0.15,0.1,0.039810717055349706,1,0.28944748600770254
88,659,ThreeLinesControl,0.0,0.0,0.1,0.039810717055349706,0,0.3266052520048106
88,660,FarHighWide,0.5,0.25,0.03,0.050118723362727206,1,0.19483462400967255
88,661,FarHighWide,0.5,0.25,0.03,0.039810717055349706,1,0.31483749400649685
88,662,ThreeLinesControl,0.0,0.0,0.1,0.050118723362727206,1,0.32454107800731435
88,663,FarHighNarrow,0.2,0.15,0.1,0.03162277660168378,0,0.2990826570021454
88,664,FarLowNarrow,0.1,0.15,0.2,0.025118864315095787,1,0.1047694379958557
88,665,FarLowNarrow,0.1,0.15,0.2,0.019952623149688785,0,0.2924963219993515
88,666,FarLowNarrow,0.1,0.15,0.2,0.025118864315095787,1,0.25012773998605553
88,667,FarHighNarrow,0.2,0.15,0.1,0.039810717055349706,0,0.35960868999245577
88,668,FarLowNarrow,0.1,0.15,0.2,0.019952623149688785,1,0.4446972299920162
88,669,FarHighWide,0.5,0.25,0.03,0.03162277660168378,1,0.586615444990457
88,670,FarLowWide,0.03,0.25,0.5,0.02511886431509579,1,0.29735240900481585
88,671,ThreeLinesControl_null,0.0,0.0,0.1,0.009999999999999995,1,0.5269129639927996
88,672,FarLowNarrow_null,0.1,0.15,0.2,0.01995262314968879,1,0.39680932500050403
88,673,FarLowNarrow,0.1,0.15,0.2,0.015848931924611124,0,0.33329683799820486
88,674,Constant,0.1,0.1,0.1,0.039810717055349706,0,0.35570482900948264
88,675,FarLowNarrow,0.1,0.15,0.2,0.019952623149688785,0,0.3938213929941412
88,676,FarHighWide,0.5,0.25,0.03,0.025118864315095787,1,0.4540814999927534
88,677,FarLowWide,0.03,0.25,0.5,0.01995262314968879,0,0.5740725859941449
88,678,Constant,0.1,0.1,0.1,0.050118723362727206,1,0.45809224000549875
88,679,ThreeLinesControl,0.0,0.0,0.1,0.039810717055349706,1,0.5263770919991657
88,680,FarHighWide,0.5,0.25,0.03,0.019952623149688785,0,0.4995053289894713
88,681,FarHighNarrow,0.2,0.15,0.1,0.050118723362727206,1,0.41473484100424685
88,682,FarHighNarrow,0.2,0.15,0.1,0.039810717055349706,1,0.4926787360018352
88,683,FarHighNarrow,0.2,0.15,0.1,0.03162277660168378,1,0.3469151080062147
88,684,FarLowNarrow,0.1,0.15,0.2,0.025118864315095787,0,0.3508317350060679
88,685,FarHighNarrow_null,0.2,0.15,0.1,0.02511886431509579,1,0.3972044229885796
88,686,ThreeLinesControl_null,0.0,0.0,0.1,0.00794328234724281,1,0.3154871309961891
88,687,FarHighNarrow,0.2,0.15,0.1,0.025118864315095787,0,0.4497063560120296
88,688,FarHighWide,0.5,0.25,0.03,0.025118864315095787,0,0.36805174400797114
88,689,ThreeLinesControl,0.0,0.0,0.1,0.03162277660168378,0,0.2698817210039124
88,690,FarHighNarrow,0.2,0.15,0.1,0.03162277660168378,0,0.3176718190079555
88,691,FarLowWide,0.03,0.25,0.5,0.025118864315095794,0,0.3722354269993957
88,692,FarHighNarrow,0.2,0.15,0.1,0.039810717055349706,0,0.36032776099455077
88,693,FarLowNarrow_null,0.1,0.15,0.2,0.015848931924611127,1,0.4304021309944801
88,694,ThreeLinesControl,0.0,0.0,0.1,0.039810717055349706,1,0.2365575129952049
88,695,FarLowWide,0.03,0.25,0.5,0.031622776601683784,0,0.27954210600000806
88,696,Constant_null,0.1,0.1,0.1,0.009999999999999995,1,0.3259196500002872
88,697,FarHighWide,0.5,0.25,0.03,0.03162277660168378,0,0.3310939669900108
88,698,FarLowNarrow,0.1,0.15,0.2,0.03162277660168378,0,0.27933395199943334
88,699,FarLowWide,0.03,0.25,0.5,0.03981071705534971,0,0.3167922749998979
88,700,FarHighWide,0.5,0.25,0.03,0.039810717055349706,0,0.33010751599795185
88,701,ThreeLinesControl,0.0,0.0,0.1,0.03162277660168378,0,0.31151747501280624
88,702,Constant,0.1,0.1,0.1,0.039810717055349706,1,0.509922478988301
88,703,FarLowNarrow,0.1,0.15,0.2,0.039810717055349706,0,0.36408670200034976
88,704,FarLowWide,0.03,0.25,0.5,0.05011872336272721,0,0.346036622999236
88,705,ThreeLinesControl,0.0,0.0,0.1,0.039810717055349706,0,99
88,706,FarHighNarrow,0.2,0.15,0.1,0.050118723362727206,1,0.4383996390097309
88,707,ThreeLinesControl,0.0,0.0,0.1,0.050118723362727206,1,0.4384816950041568
88,708,FarHighNarrow,0.2,0.15,0.1,0.039810717055349706,1,0.3806117509957403
88,709,ThreeLinesControl,0.0,0.0,0.1,0.039810717055349706,1,0.27204530000744853
88,710,Constant,0.1,0.1,0.1,0.03162277660168378,1,0.20570132799912244
88,711,Constant,0.1,0.1,0.1,0.025118864315095787,1,0.30512980101048015
88,712,FarLowWide,0.03,0.25,0.5,0.0630957344480193,1,0.3107288110040827
88,713,FarHighWide,0.5,0.25,0.03,0.050118723362727206,1,0.2363133159960853
88,714,FarHighWide,0.5,0.25,0.03,0.039810717055349706,0,0.2791985320072854
88,715,FarLowNarrow,0.1,0.15,0.2,0.050118723362727206,1,0.3895439549960429
88,716,Constant,0.1,0.1,0.1,0.019952623149688785,1,0.25963226800377015
88,717,FarLowNarrow,0.1,0.15,0.2,0.039810717055349706,0,0.3927863110002363
88,718,FarHighWide,0.5,0.25,0.03,0.050118723362727206,0,0.39118433199473657
88,719,FarLowWide,0.03,0.25,0.5,0.050118723362727206,1,0.525048384006368
88,720,FarLowNarrow,0.1,0.15,0.2,0.050118723362727206,0,0.6352328330103774
88,721,FarHighWide,0.5,0.25,0.03,0.0630957344480193,0,0.2810420590103604
88,722,FarHighNarrow_null,0.2,0.15,0.1,0.01995262314968879,1,0.25414206099230796
88,723,FarHighWide,0.5,0.25,0.03,0.07943282347242812,0,0.22821703100635204
88,724,FarHighWide_null,0.5,0.25,0.03,0.031622776601683784,0,0.19448134298727382
88,725,FarLowWide,0.03,0.25,0.5,0.039810717055349706,0,0.35301805099879857
88,726,FarHighWide,0.5,0.25,0.03,0.09999999999999998,1,0.39108012699580286
88,727,FarHighNarrow,0.2,0.15,0.1,0.03162277660168378,0,0.33319952299643774
88,728,FarLowNarrow,0.1,0.15,0.2,0.0630957344480193,0,0.44313189800595865
88,729,ThreeLinesControl,0.0,0.0,0.1,0.03162277660168378,1,0.3703634819976287
88,730,FarLowNarrow,0.1,0.15,0.2,0.07943282347242812,1,0.2295652299944777
88,731,FarLowNarrow,0.1,0.15,0.2,0.0630957344480193,0,99
88,732,Constant,0.1,0.1,0.1,0.015848931924611124,0,99
88,733,FarHighWide,0.5,0.25,0.03,0.07943282347242812,1,0.15681255199888255
88,734,Constant,0.1,0.1,0.1,0.019952623149688785,0,0.33889951500168536
88,735,ThreeLinesControl,0.0,0.0,0.1,0.025118864315095787,0,0.28923762499471195
88,736,FarLowWide,0.03,0.25,0.5,0.050118723362727206,0,0.34859801999118645
88,737,Constant,0.1,0.1,0.1,0.025118864315095787,1,0.28257075100555085
88,738,FarHighWide,0.5,0.25,0.03,0.0630957344480193,1,0.2886581990023842
88,739,FarLowWide_null,0.03,0.25,0.5,0.03981071705534971,1,0.33389728200563695
88,740,FarHighNarrow,0.2,0.15,0.1,0.039810717055349706,0,0.27631121600279585
88,741,ThreeLinesControl,0.0,0.0,0.1,0.03162277660168378,1,0.8499925319920294
88,742,FarHighWide,0.5,0.25,0.03,0.050118723362727206,0,0.33621280000079423
88,743,ThreeLinesControl_null,0.0,0.0,0.1,0.0063095734448019285,1,0.39813541299372446
88,744,FarHighWide,0.5,0.25,0.03,0.0630957344480193,1,0.39662462200794835
88,745,FarLowWide,0.03,0.25,0.5,0.0630957344480193,0,0.2758065469970461
88,746,FarLowNarrow,0.1,0.15,0.2,0.07943282347242812,0,0.35395844900631346
88,747,FarLowWide,0.03,0.25,0.5,0.07943282347242812,1,0.3180722090037307
88,748,FarLowWide,0.03,0.25,0.5,0.0630957344480193,1,0.3796070460084593
88,749,FarLowNarrow,0.1,0.15,0.2,0.09999999999999998,1,0.23007801099447533
88,750,FarLowNarrow,0.1,0.15,0.2,0.07943282347242812,1,0.30904473800910637
88,751,FarHighNarrow_null,0.2,0.15,0.1,0.015848931924611127,1,0.32251952700607944
88,752,FarHighWide,0.5,0.25,0.03,0.050118723362727206,0,0.3897737040097127
88,753,FarHighWide,0.5,0.25,0.03,0.0630957344480193,0,0.3636135179986013
88,754,Constant,0.1,0.1,0.1,0.019952623149688785,1,0.2904914089886006
88,755,FarLowNarrow,0.1,0.15,0.2,0.0630957344480193,1,0.21590726199792698
88,756,FarHighWide_null,0.5,0.25,0.03,0.03981071705534971,1,0.32610801298869774
88,757,Constant,0.1,0.1,0.1,0.015848931924611124,0,0.36451074200158473
88,758,ThreeLinesControl,0.0,0.0,0.1,0.025118864315095787,0,0.3694316019973485
88,759,FarLowNarrow,0.1,0.15,0.2,0.050118723362727206,1,0.2640688669926021
88,760,ThreeLinesControl,0.0,0.0,0.1,0.03162277660168378,1,0.3669882800022606
88,761,FarLowNarrow,0.1,0.15,0.2,0.039810717055349706,0,0.2768931290047476
88,762,FarHighWide,0.5,0.25,0.03,0.07943282347242812,1,0.26045931999397
88,763,FarHighNarrow,0.2,0.15,0.1,0.050118723362727206,0,0.3431452039949363
88,764,FarHighWide,0.5,0.25,0.03,0.0630957344480193,1,0.3735485289944336
88,765,Constant,0.1,0.1,0.1,0.019952623149688785,1,0.1955657539947424
88,766,FarLowNarrow,0.1,0.15,0.2,0.050118723362727206,1,0.3427767699904507
88,767,FarHighWide,0.5,0.25,0.03,0.050118723362727206,1,0.420921229000669
88,768,FarHighNarrow,0.2,0.15,0.1,0.0630957344480193,0,0.42418048898980487
88,769,FarLowWide_null,0.03,0.25,0.5,0.031622776601683784,1,0.46193145999859553
88,770,ThreeLinesControl_null,0.0,0.0,0.1,0.005011872336272719,1,0.356539234999218
88,771,FarLowWide,0.03,0.25,0.5,0.050118723362727206,0,0.3306217230128823
88,772,Constant,0.1,0.1,0.1,0.015848931924611124,0,0.5196791140042478
88,773,Constant,0.1,0.1,0.1,0.019952623149688785,0,0.3018290670006536
88,774,FarLowWide_null,0.03,0.25,0.5,0.02511886431509579,1,0.2916991560050519
88,775,FarHighWide_null,0.5,0.25,0.03,0.031622776601683784,0,0.1778705360047752
88,776,Constant,0.1,0.1,0.1,0.025118864315095787,1,0.303836790000787
88,777,FarHighWide,0.5,0.25,0.03,0.039810717055349706,1,0.32728314799896907
88,778,FarHighNarrow,0.2,0.15,0.1,0.07943282347242812,1,0.23866186800296418
88,779,FarLowNarrow,0.1,0.15,0.2,0.039810717055349706,1,0.2727353639929788
88,780,Constant,0.1,0.1,0.1,0.019952623149688785,0,0.31895511600305326
88,781,FarHighNarrow,0.2,0.15,0.1,0.0630957344480193,1,0.22064753300219309
88,782,FarLowWide,0.03,0.25,0.5,0.0630957344480193,1,0.25612001300032716
88,783,FarHighWide,0.5,0.25,0.03,0.03162277660168378,1,0.3506294889957644
88,784,FarLowWide,0.03,0.25,0.5,0.050118723362727206,1,0.2986440280074021
88,785,ThreeLinesControl,0.0,0.0,0.1,0.025118864315095787,0,0.5036093659873586
88,786,FarLowWide,0.03,0.25,0.5,0.039810717055349706,1,0.24566702100855764
88,787,ThreeLinesControl,0.0,0.0,0.1,0.03162277660168378,0,0.30833090899977833
88,788,Constant,0.1,0.1,0.1,0.025118864315095787,1,0.20197132500470616
88,789,FarHighNarrow,0.2,0.15,0.1,0.050118723362727206,1,0.22412679700937588
88,790,FarLowNarrow_null,0.1,0.15,0.2,0.012589254117941666,1,0.3423829580133315
88,791,Constant,0.1,0.1,0.1,0.019952623149688785,0,0.32451460999436677
88,792,Constant,0.1,0.1,0.1,0.025118864315095787,0,0.5866584809991764
88,793,Constant_null,0.1,0.1,0.1,0.00794328234724281,1,0.40874632299528457
88,794,ThreeLinesControl,0.0,0.0,0.1,0.039810717055349706,0,0.35953862199676223
88,795,Constant,0.1,0.1,0.1,0.03162277660168378,1,0.1391161089995876
88,796,ThreeLinesControl,0.0,0.0,0.1,0.050118723362727206,0,0.36928538100619335
88,797,ThreeLinesControl,0.0,0.0,0.1,0.0630957344480193,1,0.3103579680027906
88,798,FarLowWide_null,0.03,0.25,0.5,0.01995262314968879,1,0.3065607330063358
88,799,FarHighNarrow,0.2,0.15,0.1,0.039810717055349706,1,0.35166071901039686
88,800,FarHighWide,0.5,0.25,0.03,0.025118864315095787,0,0.3018282779958099
88,801,FarLowWide,0.03,0.25,0.5,0.03162277660168378,0,0.2820669530046871
88,802,FarHighWide,0.5,0.25,0.03,0.03162277660168378,0,0.3361509579990525
88,803,FarHighWide,0.5,0.25,0.03,0.039810717055349706,0,0.3504151870001806
88,804,FarHighWide,0.5,0.25,0.03,0.050118723362727206,0,0.3887252340064151
88,805,FarHighWide,0.5,0.25,0.03,0.0630957344480193,0,0.37074845600000117
88,806,FarHighNarrow,0.2,0.15,0.1,0.03162277660168378,0,0.3047262800100725
88,807,Constant,0.1,0.1,0.1,0.025118864315095787,1,0.17461554700275883
88,808,FarLowWide,0.03,0.25,0.5,0.039810717055349706,0,0.3570282509899698
88,809,ThreeLinesControl,0.0,0.0,0.1,0.050118723362727206,1,0.25794148199202027
88,810,FarHighNarrow,0.2,0.15,0.1,0.039810717055349706,1,0.225637657000334
88,811,FarHighWide,0.5,0.25,0.03,0.07943282347242812,1,0.2564724830008345
88,812,FarHighNarrow,0.2,0.15,0.1,0.03162277660168378,1,0.28370258799986914
88,813,FarHighWide,0.5,0.25,0.03,0.0630957344480193,0,99
88,814,FarLowNarrow,0.1,0.15,0.2,0.03162277660168378,1,0.33300520200282335
88,815,FarHighNarrow_null,0.2,0.15,0.1,0.012589254117941666,0,99
88,816,FarLowWide,0.03,0.25,0.5,0.050118723362727206,0,0.41600327799096704
88,817,FarHighWide,0.5,0.25,0.03,0.07943282347242812,1,0.33293726699776016
88,818,FarLowWide,0.03,0.25,0.5,0.0630957344480193,1,0.26682155799062457
88,819,FarHighWide,0.5,0.25,0.03,0.0630957344480193,1,0.26454711699625477
88,820,FarHighNarrow,0.2,0.15,0.1,0.025118864315095787,1,0.37453890300821513
88,821,FarHighNarrow_null,0.2,0.15,0.1,0.015848931924611127,0,0.2846923900069669
88,822,FarLowWide,0.03,0.25,0.5,0.050118723362727206,0,0.2677207439992344
88,823,FarHighNarrow,0.2,0.15,0.1,0.019952623149688785,0,0.2812327580031706
88,824,FarLowWide_null,0.03,0.25,0.5,0.015848931924611127,1,0.3026477780076675
88,825,FarLowNarrow,0.1,0.15,0.2,0.025118864315095787,0,0.28568415400513913
88,826,FarLowNarrow,0.1,0.15,0.2,0.03162277660168378,0,0.37178622400097083
88,827,FarLowWide,0.03,0.25,0.5,0.0630957344480193,1,0.2107446029986022
88,828,FarLowWide,0.03,0.25,0.5,0.050118723362727206,1,0.3805405049934052
88,829,FarLowWide,0.03,0.25,0.5,0.039810717055349706,1,0.22694239500560798
88,830,Constant,0.1,0.1,0.1,0.019952623149688785,0,0.2732909619953716
88,831,Constant,0.1,0.1,0.1,0.025118864315095787,0,0.2687286130094435
88,832,Constant,0.1,0.1,0.1,0.03162277660168378,1,0.20259862100647297
88,833,ThreeLinesControl,0.0,0.0,0.1,0.039810717055349706,0,0.30248972999106627
88,834,Constant,0.1,0.1,0.1,0.025118864315095787,0,0.37278467799478676
88,835,Constant,0.1,0.1,0.1,0.03162277660168378,0,0.43514273199252784
88,836,FarHighWide,0.5,0.25,0.03,0.050118723362727206,0,0.5134398999944096
88,837,FarLowNarrow,0.1,0.15,0.2,0.039810717055349706,1,0.7835391160042491
88,838,FarLowWide,0.03,0.25,0.5,0.03162277660168378,1,0.3964371839974774
88,839,ThreeLinesControl,0.0,0.0,0.1,0.050118723362727206,1,0.27665857000101823
88,840,FarHighWide,0.5,0.25,0.03,0.0630957344480193,1,0.7173415059951367
88,841,Constant,0.1,0.1,0.1,0.039810717055349706,1,0.33201852899219375
88,842,ThreeLinesControl,0.0,0.0,0.1,0.039810717055349706,1,0.4038557690073503
88,843,FarHighWide,0.5,0.25,0.03,0.050118723362727206,0,0.3147530190035468
88,844,FarLowNarrow_null,0.1,0.15,0.2,0.009999999999999995,1,0.30530981700576376
88,845,FarHighWide,0.5,0.25,0.03,0.0630957344480193,0,0.3035445580026135
88,846,FarHighWide,0.5,0.25,0.03,0.07943282347242812,0,0.28465778299141675
88,847,FarLowNarrow,0.1,0.15,0.2,0.03162277660168378,0,0.311633974997676
88,848,FarLowWide,0.03,0.25,0.5,0.025118864315095787,0,0.4538447269878816
88,849,FarLowNarrow,0.1,0.15,0.2,0.039810717055349706,1,0.16394508798839524
88,850,FarLowNarrow,0.1,0.15,0.2,0.03162277660168378,0,0.3271321249922039
88,851,FarHighNarrow,0.2,0.15,0.1,0.025118864315095787,1,0.2932971760019427
88,852,FarLowNarrow,0.1,0.15,0.2,0.039810717055349706,0,0.44355272701068316
88,853,ThreeLinesControl,0.0,0.0,0.1,0.03162277660168378,1,0.29652704400359653
88,854,ThreeLinesControl,0.0,0.0,0.1,0.025118864315095787,0,0.3577302409976255
88,855,FarHighWide,0.5,0.25,0.03,0.09999999999999998,1,0.5561314350052271
88,856,FarHighNarrow,0.2,0.15,0.1,0.019952623149688785,0,0.33784717399976216
88,857,ThreeLinesControl,0.0,0.0,0.1,0.03162277660168378,0,0.3840162609994877
88,858,FarHighWide,0.5,0.25,0.03,0.07943282347242812,1,0.5423569940030575
88,859,FarHighWide,0.5,0.25,0.03,0.0630957344480193,1,0.36531271500280127
88,860,FarHighWide,0.5,0.25,0.03,0.050118723362727206,1,0.380658118010615
88,861,FarLowWide,0.03,0.25,0.5,0.03162277660168378,0,0.29870780199416913
88,862,FarHighWide,0.5,0.25,0.03,0.039810717055349706,0,0.3908745240041753
88,863,Constant,0.1,0.1,0.1,0.03162277660168378,0,0.4081467629875988
88,864,ThreeLinesControl,0.0,0.0,0.1,0.039810717055349706,0,0.6170469350036001
88,865,ThreeLinesControl,0.0,0.0,0.1,0.050118723362727206,0,0.6073951110010967
88,866,FarHighNarrow,0.2,0.15,0.1,0.025118864315095787,0,0.4104883520049043
88,867,FarHighNarrow_null,0.2,0.15,0.1,0.01995262314968879,1,0.3682932689989684
88,868,FarLowWide,0.03,0.25,0.5,0.039810717055349706,0,0.3427975779923145
88,869,ThreeLinesControl,0.0,0.0,0.1,0.0630957344480193,1,0.1878323389973957
88,870,Constant,0.1,0.1,0.1,0.039810717055349706,0,0.3618138759920839
88,871,FarLowNarrow,0.1,0.15,0.2,0.050118723362727206,0,0.2961647079937393
88,872,FarHighWide_null,0.5,0.25,0.03,0.03981071705534971,1,0.37375078100012615
88,873,FarHighWide,0.5,0.25,0.03,0.050118723362727206,1,0.34869454700674396
88,874,FarHighWide,0.5,0.25,0.03,0.039810717055349706,0,0.3626046030112775
88,875,FarLowWide,0.03,0.25,0.5,0.050118723362727206,0,0.4173561939969659
88,876,FarLowWide,0.03,0.25,0.5,0.0630957344480193,0,0.33587630301190075
88,877,FarLowWide,0.03,0.25,0.5,0.07943282347242812,1,0.5566168369987281
88,878,Constant,0.1,0.1,0.1,0.050118723362727206,1,0.5542638990009436
88,879,FarHighNarrow,0.2,0.15,0.1,0.03162277660168378,1,0.2803378960088594
88,880,FarHighWide,0.5,0.25,0.03,0.050118723362727206,1,0.2995688009978039
88,881,FarLowNarrow,0.1,0.15,0.2,0.0630957344480193,1,0.24952924699755386
88,882,FarHighWide_null,0.5,0.25,0.03,0.031622776601683784,1,0.29584944700764026
88,883,ThreeLinesControl,0.0,0.0,0.1,0.050118723362727206,0,0.41130370800965466
88,884,ThreeLinesControl_null,0.0,0.0,0.1,0.00398107170553497,0,0.3211965839873301
88,885,FarLowWide,0.03,0.25,0.5,0.0630957344480193,1,0.25439320600708015
88,886,FarHighWide,0.5,0.25,0.03,0.039810717055349706,0,0.3724325170041993
88,887,Constant,0.1,0.1,0.1,0.039810717055349706,1,0.2658273599954555
88,888,Constant,0.1,0.1,0.1,0.03162277660168378,1,0.18355082599737216
88,889,FarHighNarrow,0.2,0.15,0.1,0.025118864315095787,1,0.21354261199303437
88,890,FarHighWide,0.5,0.25,0.03,0.050118723362727206,1,0.2522418070002459
88,891,FarHighWide,0.5,0.25,0.03,0.039810717055349706,1,0.3473123209987534
88,892,Constant_null,0.1,0.1,0.1,0.0063095734448019285,1,0.3463879030023236
88,893,ThreeLinesControl,0.0,0.0,0.1,0.0630957344480193,0,0.2810623490076978
88,894,FarHighWide,0.5,0.25,0.03,0.03162277660168378,1,0.3006099729973357
88,895,FarHighNarrow,0.2,0.15,0.1,0.019952623149688785,0,0.3615158930042526
88,896,FarLowNarrow,0.1,0.15,0.2,0.050118723362727206,1,0.3088848330080509
88,897,FarLowWide,0.03,0.25,0.5,0.050118723362727206,1,0.3867589449946536
88,898,Constant,0.1,0.1,0.1,0.025118864315095787,0,0.3372952450008597
88,899,FarHighWide_null,0.5,0.25,0.03,0.02511886431509579,1,0.3085905680054566
88,900,FarLowNarrow,0.1,0.15,0.2,0.039810717055349706,1,0.2341384180035675
88,901,FarHighNarrow,0.2,0.15,0.1,0.025118864315095787,0,0.3045805519941496
88,902,Constant,0.1,0.1,0.1,0.03162277660168378,1,0.30878502200357616
88,903,FarLowNarrow,0.1,0.15,0.2,0.03162277660168378,0,0.45098820398561656
88,904,FarLowWide,0.03,0.25,0.5,0.039810717055349706,0,0.281403759989189
88,905,FarHighNarrow,0.2,0.15,0.1,0.03162277660168378,0,0.36693052100599743
88,906,FarHighWide,0.5,0.25,0.03,0.025118864315095787,1,0.3968260800029384
88,907,FarHighWide_null,0.5,0.25,0.03,0.01995262314968879,1,0.4113838759949431
88,908,FarLowNarrow,0.1,0.15,0.2,0.039810717055349706,1,0.36230622199946083
88,909,ThreeLinesControl,0.0,0.0,0.1,0.07943282347242812,1,0.4325255009898683
88,910,FarLowWide,0.03,0.25,0.5,0.050118723362727206,1,0.4129292759898817
88,911,FarHighNarrow,0.2,0.15,0.1,0.039810717055349706,1,0.3140505400078837
88,912,FarHighWide,0.5,0.25,0.03,0.019952623149688785,0,0.32523005100665614
88,913,FarHighNarrow,0.2,0.15,0.1,0.03162277660168378,0,0.37134686499484815
88,914,FarHighNarrow,0.2,0.15,0.1,0.039810717055349706,1,0.33769145800033584
88,915,FarLowWide,0.03,0.25,0.5,0.039810717055349706,0,0.3166329400119139
88,916,FarHighWide,0.5,0.25,0.03,0.025118864315095787,1,0.3469605220016092
88,917,ThreeLinesControl,0.0,0.0,0.1,0.0630957344480193,1,0.35273104200314265
88,918,FarLowNarrow,0.1,0.15,0.2,0.03162277660168378,0,0.42216630099574104
88,919,FarHighNarrow,0.2,0.15,0.1,0.03162277660168378,0,0.39663120300974697
88,920,FarHighWide,0.5,0.25,0.03,0.019952623149688785,0,0.48990536300698295
88,921,FarLowNarrow,0.1,0.15,0.2,0.039810717055349706,0,0.3284858469996834
88,922,FarHighNarrow,0.2,0.15,0.1,0.039810717055349706,1,0.31874843400146347
88,923,FarHighNarrow,0.2,0.15,0.1,0.03162277660168378,0,0.3100331530004041
88,924,FarHighWide,0.5,0.25,0.03,0.025118864315095787,0,0.30779533299210016
88,925,FarLowNarrow,0.1,0.15,0.2,0.050118723362727206,0,0.3388519889995223
88,926,ThreeLinesControl,0.0,0.0,0.1,0.050118723362727206,1,0.2867314949980937
88,927,FarLowNarrow,0.1,0.15,0.2,0.0630957344480193,1,0.24456442799419165
88,928,FarLowNarrow,0.1,0.15,0.2,0.050118723362727206,1,0.23425496500567533
88,929,FarHighNarrow,0.2,0.15,0.1,0.039810717055349706,1,0.3498701579956105
88,930,FarHighWide,0.5,0.25,0.03,0.03162277660168378,1,0.24255999899469316
88,931,FarLowNarrow,0.1,0.15,0.2,0.039810717055349706,0,0.3751687019976089
88,932,FarLowWide,0.03,0.25,0.5,0.050118723362727206,0,0.3169061360094929
88,933,FarHighNarrow,0.2,0.15,0.1,0.03162277660168378,1,0.18703446799190715
88,934,FarLowNarrow,0.1,0.15,0.2,0.050118723362727206,0,0.22447582600580063
88,935,Constant,0.1,0.1,0.1,0.025118864315095787,0,0.3104375479888404
88,936,Constant,0.1,0.1,0.1,0.03162277660168378,0,0.3327691350132227
88,937,FarLowWide,0.03,0.25,0.5,0.0630957344480193,0,0.4829461270128377
88,938,Constant,0.1,0.1,0.1,0.039810717055349706,1,0.21654913600650616
88,939,FarLowWide,0.03,0.25,0.5,0.07943282347242812,1,0.1426303540065419
88,940,FarHighNarrow,0.2,0.15,0.1,0.025118864315095787,1,0.23699986800784245
88,941,ThreeLinesControl_null,0.0,0.0,0.1,0.00501187233627272,1,0.3167142710008193
88,942,FarLowWide,0.03,0.25,0.5,0.0630957344480193,0,0.2713876310008345
88,943,ThreeLinesControl,0.0,0.0,0.1,0.039810717055349706,1,0.20595993900496978
88,944,FarHighNarrow,0.2,0.15,0.1,0.019952623149688785,1,0.24299380999582354
88,945,FarHighNarrow,0.2,0.15,0.1,0.015848931924611124,0,99
88,946,Constant_null,0.1,0.1,0.1,0.005011872336272719,0,99
88,947,ThreeLinesControl,0.0,0.0,0.1,0.03162277660168378,0,0.42670902400277555
88,948,FarLowWide,0.03,0.25,0.5,0.07943282347242812,1,0.39858349499991164
88,949,FarLowNarrow,0.1,0.15,0.2,0.0630957344480193,1,0.26791082600539085
88,950,FarHighNarrow,0.2,0.15,0.1,0.019952623149688785,1,0.2178573410055833
88,951,ThreeLinesControl,0.0,0.0,0.1,0.039810717055349706,0,0.3276421110058436
88,952,FarLowNarrow,0.1,0.15,0.2,0.050118723362727206,1,0.3020430379983736
88,953,FarHighWide,0.5,0.25,0.03,0.025118864315095787,0,0.5323725289927097
88,954,FarLowWide,0.03,0.25,0.5,0.0630957344480193,1,0.33028686098987237
88,955,Constant_null,0.1,0.1,0.1,0.0063095734448019285,1,0.3926755599968601
88,956,Constant,0.1,0.1,0.1,0.03162277660168378,0,0.36686635900696274
88,957,Constant,0.1,0.1,0.1,0.039810717055349706,0,0.3971220459934557
88,958,FarHighNarrow,0.2,0.15,0.1,0.015848931924611124,0,0.38821308499609586
88,959,FarHighWide,0.5,0.25,0.03,0.03162277660168378,0,0.38321514800190926
88,960,FarLowWide,0.03,0.25,0.5,0.050118723362727206,0,0.39651020600285847
88,961,FarLowNarrow,0.1,0.15,0.2,0.039810717055349706,0,0.2565694990043994
88,962,Constant,0.1,0.1,0.1,0.050118723362727206,0,0.24689643699093722
88,963,ThreeLinesControl,0.0,0.0,0.1,0.050118723362727206,0,0.2622306889970787
88,964,FarLowNarrow,0.1,0.15,0.2,0.050118723362727206,0,0.25992093900276814
88,965,FarHighWide,0.5,0.25,0.03,0.039810717055349706,1,0.08757033999427222
88,966,FarLowWide,0.03,0.25,0.5,0.0630957344480193,1,0.18159547899267636
88,967,FarHighWide,0.5,0.25,0.03,0.03162277660168378,0,0.23575514100957662
88,968,FarLowWide,0.03,0.25,0.5,0.050118723362727206,0,0.310897732997546
88,969,FarLowWide,0.03,0.25,0.5,0.0630957344480193,1,0.2122325410018675
88,970,Constant_null,0.1,0.1,0.1,0.005011872336272719,1,0.31411114300135523
88,971,FarLowWide,0.03,0.25,0.5,0.050118723362727206,0,0.34213163000822533
88,972,Constant,0.1,0.1,0.1,0.0630957344480193,0,99
88,973,Constant,0.1,0.1,0.1,0.07943282347242812,1,0.21064308698987588
88,974,FarHighWide,0.5,0.25,0.03,0.039810717055349706,0,0.24902833299711347
88,975,Constant,0.1,0.1,0.1,0.0630957344480193,0,0.3109741920052329
88,976,FarHighWide,0.5,0.25,0.03,0.050118723362727206,1,0.26961293499334715
88,977,FarLowWide,0.03,0.25,0.5,0.0630957344480193,1,0.13116151999565773
88,978,FarHighNarrow,0.2,0.15,0.1,0.019952623149688785,1,0.16336456300632562
88,979,FarLowNarrow,0.1,0.15,0.2,0.0630957344480193,1,0.20916935699642636
88,980,FarLowWide_null,0.03,0.25,0.5,0.012589254117941666,1,0.2958497549989261
88,981,Constant,0.1,0.1,0.1,0.07943282347242812,1,0.2463510630041128
88,982,ThreeLinesControl,0.0,0.0,0.1,0.0630957344480193,1,0.11318774199753534
88,983,Constant,0.1,0.1,0.1,0.0630957344480193,1,0.1189843179890886
88,984,Constant,0.1,0.1,0.1,0.050118723362727206,1,0.11323876200185623
88,985,FarHighWide,0.5,0.25,0.03,0.039810717055349706,0,99
88,986,FarHighNarrow,0.2,0.15,0.1,0.015848931924611124,1,0.09367228599148802
88,987,ThreeLinesControl,0.0,0.0,0.1,0.050118723362727206,0,0.24139968800591305
88,988,FarHighWide,0.5,0.25,0.03,0.050118723362727206,0,0.24777521200303454
88,989,FarLowNarrow,0.1,0.15,0.2,0.050118723362727206,0,0.2460664039972471
88,990,ThreeLinesControl,0.0,0.0,0.1,0.0630957344480193,1,0.17190991700044833
88,991,FarLowWide_null,0.03,0.25,0.5,0.009999999999999995,0,0.15444520598975942
88,992,Constant,0.1,0.1,0.1,0.039810717055349706,1,0.2164074320025975
88,993,FarHighNarrow,0.2,0.15,0.1,0.012589254117941663,0,0.32732844800921157
88,994,FarLowWide,0.03,0.25,0.5,0.050118723362727206,0,0.2856165260018315
88,995,FarLowWide,0.03,0.25,0.5,0.0630957344480193,1,0.2610259190114448
88,996,FarLowNarrow,0.1,0.15,0.2,0.0630957344480193,1,0.15489019399683457
88,997,FarLowWide,0.03,0.25,0.5,0.050118723362727206,1,0.30610402500315104
88,998,FarLowNarrow,0.1,0.15,0.2,0.050118723362727206,0,0.31660843700228725
88,999,FarLowWide,0.03,0.25,0.5,0.039810717055349706,0,0.30625015699479263
88,1000,FarLowNarrow,0.1,0.15,0.2,0.0630957344480193,1,0.10155053000198677
88,1001,FarHighNarrow,0.2,0.15,0.1,0.015848931924611124,1,0.10767780800233595
88,1002,FarHighWide,0.5,0.25,0.03,0.0630957344480193,1,0.25770064000971615
88,1003,ThreeLinesControl,0.0,0.0,0.1,0.050118723362727206,0,0.2779667180002434
88,1004,FarHighNarrow,0.2,0.15,0.1,0.012589254117941663,0,0.32428616400284227
88,1005,FarHighWide,0.5,0.25,0.03,0.050118723362727206,0,0.33026892799534835
88,1006,Constant,0.1,0.1,0.1,0.03162277660168378,0,0.28051700499781873
88,1007,FarHighNarrow,0.2,0.15,0.1,0.015848931924611124,1,0.16530636399693321
88,1008,FarLowWide,0.03,0.25,0.5,0.050118723362727206,1,0.29180067899869755
88,1009,ThreeLinesControl,0.0,0.0,0.1,0.0630957344480193,1,0.2844429059914546
88,1010,FarLowNarrow,0.1,0.15,0.2,0.050118723362727206,1,0.2652216970018344
88,1011,FarHighNarrow,0.2,0.15,0.1,0.012589254117941663,0,0.3034067169937771
88,1012,FarHighWide,0.5,0.25,0.03,0.0630957344480193,1,0.5964013240009081
88,1013,FarHighNarrow,0.2,0.15,0.1,0.015848931924611124,0,0.4050638980115764
88,1014,FarLowNarrow,0.1,0.15,0.2,0.039810717055349706,0,99
88,1015,FarHighNarrow,0.2,0.15,0.1,0.019952623149688785,0,0.3805855100072222
88,1016,FarHighWide,0.5,0.25,0.03,0.050118723362727206,0,0.33895164998830296
88,1017,FarHighWide,0.5,0.25,0.03,0.0630957344480193,1,0.24594099300156813
88,1018,FarHighWide,0.5,0.25,0.03,0.050118723362727206,0,0.28451801800110843
88,1019,Constant,0.1,0.1,0.1,0.039810717055349706,1,0.2648021589993732
88,1020,Constant,0.1,0.1,0.1,0.03162277660168378,1,0.30645174300298095
88,1021,FarLowWide,0.03,0.25,0.5,0.039810717055349706,1,0.3447920280013932
88,1022,FarHighWide,0.5,0.25,0.03,0.0630957344480193,1,0.33476257500296924
88,1023,FarLowNarrow,0.1,0.15,0.2,0.050118723362727206,0,99
88,1024,FarLowWide_null,0.03,0.25,0.5,0.012589254117941666,0,0.22699224400275853
88,1025,FarLowWide,0.03,0.25,0.5,0.03162277660168378,1,0.4190605640033027
88,1026,Constant,0.1,0.1,0.1,0.025118864315095787,1,0.30527611600700766
88,1027,FarHighNarrow,0.2,0.15,0.1,0.025118864315095787,0,0.5499129359959625
88,1028,ThreeLinesControl,0.0,0.0,0.1,0.050118723362727206,1,0.36395065099350177
88,1029,Constant,0.1,0.1,0.1,0.019952623149688785,0,0.42013868399953935
88,1030,Constant,0.1,0.1,0.1,0.025118864315095787,0,0.3259791989985388
88,1031,FarLowWide,0.03,0.25,0.5,0.025118864315095787,0,99
88,1032,Constant,0.1,0.1,0.1,0.03162277660168378,1,0.4096994330029702
88,1033,FarHighNarrow,0.2,0.15,0.1,0.03162277660168378,1,0.31669767800485715
88,1034,Constant,0.1,0.1,0.1,0.025118864315095787,1,0.27461940099601634
88,1035,FarLowWide,0.03,0.25,0.5,0.03162277660168378,0,0.3688188339874614
88,1036,FarHighWide,0.5,0.25,0.03,0.050118723362727206,1,0.3739108690060675
88,1037,Constant,0.1,0.1,0.1,0.019952623149688785,0,0.28409329800342675
88,1038,FarLowNarrow,0.1,0.15,0.2,0.0630957344480193,1,0.42616394700598903
88,1039,ThreeLinesControl,0.0,0.0,0.1,0.039810717055349706,0,0.39236654600244947
88,1040,FarLowWide,0.03,0.25,0.5,0.039810717055349706,0,0.5747821130062221
88,1041,FarHighWide,0.5,0.25,0.03,0.039810717055349706,1,0.276840306003578
88,1042,FarHighNarrow,0.2,0.15,0.1,0.025118864315095787,0,0.4049787190015195
88,1043,FarLowWide_null,0.03,0.25,0.5,0.015848931924611127,1,0.43505551099951845
88,1044,FarLowNarrow,0.1,0.15,0.2,0.050118723362727206,1,0.439179706008872
88,1045,ThreeLinesControl,0.0,0.0,0.1,0.050118723362727206,0,0.3173431920004077
88,1046,Constant,0.1,0.1,0.1,0.025118864315095787,0,0.37624261699966155
88,1047,FarHighNarrow,0.2,0.15,0.1,0.03162277660168378,1,0.38276902100187726
88,1048,FarLowNarrow,0.1,0.15,0.2,0.039810717055349706,1,0.420767611998599
88,1049,FarLowNarrow,0.1,0.15,0.2,0.03162277660168378,0,0.359709266005666
88,1050,FarLowWide,0.03,0.25,0.5,0.050118723362727206,0,0.35013317700941116
88,1051,FarHighNarrow,0.2,0.15,0.1,0.025118864315095787,0,0.4191736849898007
88,1052,FarLowWide,0.03,0.25,0.5,0.0630957344480193,0,0.4002982130041346
88,1053,FarHighNarrow,0.2,0.15,0.1,0.03162277660168378,1,0.406068462994881
88,1054,ThreeLinesControl,0.0,0.0,0.1,0.0630957344480193,0,0.5808585019985912
88,1055,FarHighWide,0.5,0.25,0.03,0.03162277660168378,0,0.4427464110049186
88,1056,Constant,0.1,0.1,0.1,0.03162277660168378,0,0.5367518209968694
88,1057,Constant,0.1,0.1,0.1,0.039810717055349706,0,0.4869919180055149
88,1058,FarHighWide,0.5,0.25,0.03,0.039810717055349706,1,0.6621617750060977
88,1059,FarLowNarrow,0.1,0.15,0.2,0.039810717055349706,0,0.444106526003452
88,1060,ThreeLinesControl,0.0,0.0,0.1,0.07943282347242812,1,0.2965453399956459
88,1061,FarHighNarrow,0.2,0.15,0.1,0.025118864315095787,0,99
88,1062,Constant,0.1,0.1,0.1,0.050118723362727206,1,0.24589834299695212
88,1063,FarLowWide,0.03,0.25,0.5,0.07943282347242812,1,0.24134600600518752
88,1064,Constant,0.1,0.1,0.1,0.039810717055349706,1,0.31913433999579865
88,1065,FarLowNarrow,0.1,0.15,0.2,0.050118723362727206,0,0.29856413599918596
88,1066,FarHighWide,0.5,0.25,0.03,0.03162277660168378,0,0.3364079640014097
88,1067,Constant_null,0.1,0.1,0.1,0.00398107170553497,1,0.3575290680018952
88,1068,FarHighNarrow,0.2,0.15,0.1,0.03162277660168378,0,0.37103523800033145
88,1069,FarLowNarrow,0.1,0.15,0.2,0.0630957344480193,1,0.4727262849919498
88,1070,Constant,0.1,0.1,0.1,0.03162277660168378,0,0.4308669369929703
88,1071,FarHighWide,0.5,0.25,0.03,0.039810717055349706,1,0.42883214000903536
88,1072,FarLowWide,0.03,0.25,0.5,0.0630957344480193,1,0.498400627009687
88,1073,FarLowNarrow,0.1,0.15,0.2,0.050118723362727206,1,0.3603615569882095
88,1074,FarLowNarrow,0.1,0.15,0.2,0.039810717055349706,1,0.31949402000464033
88,1075,FarHighWide,0.5,0.25,0.03,0.03162277660168378,0,0.35778092600230593
88,1076,FarLowNarrow,0.1,0.15,0.2,0.03162277660168378,0,0.29782148999220226
88,1077,FarHighWide,0.5,0.25,0.03,0.039810717055349706,1,0.37484524500905536
88,1078,Constant,0.1,0.1,0.1,0.039810717055349706,0,0.30925646200194024
88,1079,ThreeLinesControl,0.0,0.0,0.1,0.0630957344480193,1,0.33619821901083924
88,1080,FarHighWide,0.5,0.25,0.03,0.03162277660168378,0,0.6907932079921011
88,1081,FarHighNarrow,0.2,0.15,0.1,0.039810717055349706,0,0.28830878899316303
88,1082,FarHighNarrow,0.2,0.15,0.1,0.050118723362727206,0,0.2685200120031368
88,1083,FarHighNarrow,0.2,0.15,0.1,0.0630957344480193,0,0.2025477589922957
88,1084,FarLowWide,0.03,0.25,0.5,0.050118723362727206,1,0.1016238330048509
88,1085,FarLowWide,0.03,0.25,0.5,0.039810717055349706,0,0.2435964970063651
88,1086,FarHighNarrow,0.2,0.15,0.1,0.07943282347242812,1,0.3537929360027192
88,1087,FarLowNarrow,0.1,0.15,0.2,0.039810717055349706,0,0.31734725000569597
88,1088,FarLowNarrow,0.1,0.15,0.2,0.050118723362727206,1,0.2273080330051016
88,1089,FarLowNarrow,0.1,0.15,0.2,0.039810717055349706,0,0.30433470699063037
88,1090,Constant,0.1,0.1,0.1,0.050118723362727206,1,0.35833549199742265
88,1091,FarHighNarrow,0.2,0.15,0.1,0.0630957344480193,1,0.2688699589925818
88,1092,ThreeLinesControl,0.0,0.0,0.1,0.050118723362727206,0,0.3468280090019107
88,1093,FarLowWide,0.03,0.25,0.5,0.050118723362727206,0,0.30479643000580836
88,1094,FarLowWide,0.03,0.25,0.5,0.0630957344480193,0,0.2864804100099718
88,1095,FarHighNarrow,0.2,0.15,0.1,0.050118723362727206,1,0.31748956099909265
88,1096,FarHighNarrow,0.2,0.15,0.1,0.039810717055349706,1,0.2606508280005073
88,1097,FarHighNarrow,0.2,0.15,0.1,0.03162277660168378,1,0.3307562370027881
88,1098,FarLowWide,0.03,0.25,0.5,0.07943282347242812,0,99
88,1099,FarLowNarrow,0.1,0.15,0.2,0.050118723362727206,1,0.23584451600618195
88,1100,FarLowNarrow,0.1,0.15,0.2,0.039810717055349706,0,0.2948340729926713
88,1101,ThreeLinesControl,0.0,0.0,0.1,0.0630957344480193,0,0.2291372780018719
88,1102,FarLowWide,0.03,0.25,0.5,0.09999999999999998,1,0.282911250993493
88,1103,FarHighNarrow,0.2,0.15,0.1,0.025118864315095787,1,0.43046303300070576
88,1104,FarLowNarrow,0.1,0.15,0.2,0.050118723362727206,1,0.3724334519938566
88,1105,Constant,0.1,0.1,0.1,0.039810717055349706,1,0.25879795900254976
88,1106,FarLowWide,0.03,0.25,0.5,0.07943282347242812,1,0.22501846999512054
88,1107,ThreeLinesControl,0.0,0.0,0.1,0.07943282347242812,1,0.23874708499351982
88,1108,FarLowNarrow,0.1,0.15,0.2,0.039810717055349706,1,0.19672129199898336
88,1109,FarHighNarrow,0.2,0.15,0.1,0.019952623149688785,1,0.32187521598825697
88,1110,FarLowNarrow,0.1,0.15,0.2,0.03162277660168378,1,0.2404428019945044
88,1111,FarLowNarrow,0.1,0.15,0.2,0.025118864315095787,1,0.3198686010000529
88,1112,Constant,0.1,0.1,0.1,0.03162277660168378,1,0.2695854439953109
88,1113,Constant_null,0.1,0.1,0.1,0.0031622776601683772,0,0.27695974199741613
88,1114,FarLowWide,0.03,0.25,0.5,0.0630957344480193,1,0.3526265929976944
88,1115,ThreeLinesControl,0.0,0.0,0.1,0.0630957344480193,1,0.3101682029955555
88,1116,FarLowWide,0.03,0.25,0.5,0.050118723362727206,0,0.36453666900342796
88,1117,Constant,0.1,0.1,0.1,0.025118864315095787,1,0.23149723900132813
88,1118,FarLowWide,0.03,0.25,0.5,0.0630957344480193,1,0.26893481900333427
88,1119,FarLowNarrow,0.1,0.15,0.2,0.019952623149688785,0,0.3448836850002408
88,1120,Constant,0.1,0.1,0.1,0.019952623149688785,0,0.3594425540068187
88,1121,Constant,0.1,0.1,0.1,0.025118864315095787,0,0.4290518810012145
88,1122,ThreeLinesControl,0.0,0.0,0.1,0.050118723362727206,1,0.47427030198741704
88,1123,FarLowNarrow,0.1,0.15,0.2,0.025118864315095787,0,99
88,1124,ThreeLinesControl,0.0,0.0,0.1,0.039810717055349706,0,0.3746197469881736
88,1125,FarLowNarrow,0.1,0.15,0.2,0.03162277660168378,0,0.38856239199230913
88,1126,FarLowWide,0.03,0.25,0.5,0.050118723362727206,0,0.43471709798905067
88,1127,ThreeLinesControl,0.0,0.0,0.1,0.050118723362727206,0,0.42505971099308226
88,1128,FarLowWide,0.03,0.25,0.5,0.0630957344480193,1,0.3513613899995107
88,1129,FarLowWide,0.03,0.25,0.5,0.050118723362727206,0,0.32652714899450075
88,1130,FarLowNarrow,0.1,0.15,0.2,0.039810717055349706,1,0.3614538679976249
88,1131,ThreeLinesControl,0.0,0.0,0.1,0.0630957344480193,1,0.3194729529932374
88,1132,FarLowNarrow,0.1,0.15,0.2,0.03162277660168378,0,0.36585883199586533
88,1133,ThreeLinesControl,0.0,0.0,0.1,0.050118723362727206,0,0.3609198930062121
88,1134,Constant,0.1,0.1,0.1,0.03162277660168378,1,0.2628304450045107
88,1135,FarLowWide,0.03,0.25,0.5,0.0630957344480193,1,0.1313099679973675
88,1136,ThreeLinesControl,0.0,0.0,0.1,0.0630957344480193,1,0.22252656100317836
88,1137,Constant,0.1,0.1,0.1,0.025118864315095787,1,0.2930849350086646
88,1138,FarLowWide,0.03,0.25,0.5,0.050118723362727206,1,0.33060812299663667
88,1139,FarLowNarrow,0.1,0.15,0.2,0.039810717055349706,1,0.2568568239948945
88,1140,Constant_null,0.1,0.1,0.1,0.00398107170553497,1,0.3830433749972144
88,1141,FarLowNarrow,0.1,0.15,0.2,0.03162277660168378,1,0.3491502240067348
88,1142,Constant,0.1,0.1,0.1,0.019952623149688785,1,0.30740642099408433
88,1143,ThreeLinesControl,0.0,0.0,0.1,0.050118723362727206,0,0.40935671799525153
88,1144,ThreeLinesControl,0.0,0.0,0.1,0.0630957344480193,0,0.35265511699253693
88,1145,ThreeLinesControl,0.0,0.0,0.1,0.07943282347242812,0,0.34243386299931444
88,1146,Constant,0.1,0.1,0.1,0.015848931924611124,0,0.3257734700018773
88,1147,ThreeLinesControl,0.0,0.0,0.1,0.09999999999999998,1,0.3513569360075053
88,1148,Constant,0.1,0.1,0.1,0.019952623149688785,0,0.29392905900022015
88,1149,FarLowNarrow,0.1,0.15,0.2,0.025118864315095787,0,0.29724283498944715
88,1150,FarLowWide,0.03,0.25,0.5,0.039810717055349706,0,0.2861788080044789
88,1151,Constant,0.1,0.1,0.1,0.025118864315095787,1,0.10880933499720413
88,1152,Constant,0.1,0.1,0.1,0.019952623149688785,1,0.2404117660043994
88,1153,Constant,0.1,0.1,0.1,0.015848931924611124,1,0.3828632990043843
88,1154,Constant_null,0.1,0.1,0.1,0.0031622776601683772,1,0.33300268900347874
88,1155,ThreeLinesControl,0.0,0.0,0.1,0.07943282347242812,1,0.3392774670064682
88,1156,ThreeLinesControl,0.0,0.0,0.1,0.0630957344480193,1,0.34434173699992243
88,1157,FarLowNarrow,0.1,0.15,0.2,0.03162277660168378,1,0.3995742419938324
88,1158,FarLowNarrow,0.1,0.15,0.2,0.025118864315095787,0,0.35164392499427777
88,1159,FarLowNarrow,0.1,0.15,0.2,0.03162277660168378,0,99
88,1160,Constant,0.1,0.1,0.1,0.012589254117941663,0,0.4590848929947242
88,1161,FarLowNarrow,0.1,0.15,0.2,0.039810717055349706,1,0.3529480040015187
88,1162,ThreeLinesControl,0.0,0.0,0.1,0.050118723362727206,1,0.3922758090047864
88,1163,ThreeLinesControl,0.0,0.0,0.1,0.039810717055349706,1,0.37833438100642525
88,1164,Constant,0.1,0.1,0.1,0.015848931924611124,0,0.3683146349940216
88,1165,Constant,0.1,0.1,0.1,0.019952623149688785,0,0.34783233399502933
88,1166,Constant,0.1,0.1,0.1,0.025118864315095787,0,0.37822865300404374
88,1167,FarLowNarrow,0.1,0.15,0.2,0.03162277660168378,0,0.319993675002479
88,1168,ThreeLinesControl,0.0,0.0,0.1,0.03162277660168378,1,0.24406621299567632
88,1169,ThreeLinesControl,0.0,0.0,0.1,0.025118864315095787,0,0.3862915409990819
88,1170,ThreeLinesControl,0.0,0.0,0.1,0.03162277660168378,0,0.456529542003409
88,1171,ThreeLinesControl,0.0,0.0,0.1,0.039810717055349706,1,0.3263378819974605
88,1172,FarLowNarrow,0.1,0.15,0.2,0.039810717055349706,1,0.34765350198722444
88,1173,Constant,0.1,0.1,0.1,0.03162277660168378,1,0.4100111050065607
88,1174,Constant,0.1,0.1,0.1,0.025118864315095787,1,0.2982072049926501
88,1175,ThreeLinesControl,0.0,0.0,0.1,0.03162277660168378,1,0.2893153250042815
88,1176,ThreeLinesControl,0.0,0.0,0.1,0.025118864315095787,1,0.2545064680016367
88,1177,ThreeLinesControl,0.0,0.0,0.1,0.019952623149688785,0,0.32340336800552905
88,1178,Constant,0.1,0.1,0.1,0.019952623149688785,0,0.3617678739974508
88,1179,FarLowNarrow,0.1,0.15,0.2,0.03162277660168378,1,0.3805126899969764
88,1180,ThreeLinesControl,0.0,0.0,0.1,0.025118864315095787,0,0.3147548840061063
88,1181,Constant,0.1,0.1,0.1,0.025118864315095787,0,0.29685326298931614
88,1182,ThreeLinesControl,0.0,0.0,0.1,0.03162277660168378,0,0.3720921560015995
88,1183,ThreeLinesControl,0.0,0.0,0.1,0.039810717055349706,1,0.30650234001223
88,1184,ThreeLinesControl,0.0,0.0,0.1,0.03162277660168378,0,0.28639832099725027
88,1185,Constant,0.1,0.1,0.1,0.03162277660168378,1,0.32467679800174665
88,1186,Constant,0.1,0.1,0.1,0.025118864315095787,0,0.3229612020077184
88,1187,Constant,0.1,0.1,0.1,0.03162277660168378,0,0.29657637600030284
88,1188,Constant,0.1,0.1,0.1,0.039810717055349706,0,0.3348793339973781
88,1189,Constant,0.1,0.1,0.1,0.050118723362727206,1,0.3493972119904356
88,1190,ThreeLinesControl,0.0,0.0,0.1,0.039810717055349706,0,0.30737997399410233
88,1191,ThreeLinesControl,0.0,0.0,0.1,0.050118723362727206,1,0.3235189749975689
88,1192,ThreeLinesControl,0.0,0.0,0.1,0.039810717055349706,0,0.25573882699245587
88,1193,ThreeLinesControl,0.0,0.0,0.1,0.050118723362727206,0,0.3010085089917993
88,1194,ThreeLinesControl,0.0,0.0,0.1,0.0630957344480193,0,0.33292968600289896
88,1195,ThreeLinesControl,0.0,0.0,0.1,0.07943282347242812,1,0.271803922005347
88,1196,ThreeLinesControl,0.0,0.0,0.1,0.0630957344480193,1,0.25318400899413973
88,1197,ThreeLinesControl,0.0,0.0,0.1,0.050118723362727206,0,0.3942691269912757
88,1198,ThreeLinesControl,0.0,0.0,0.1,0.0630957344480193,1,0.24550418498984072
88,1199,ThreeLinesControl,0.0,0.0,0.1,0.050118723362727206,1,0.28360075199452695
