Participant_Number,Trial_Number,Condition,FCfar,FCmed,FCclose,Target_Contrast,Correct_Response,Reaction_Time
78,0,FarLowNarrow,0.1,0.15,0.2,0.1,1,0.8345837189990561
78,1,FarHighNarrow,0.2,0.15,0.1,0.1,1,0.533708987000864
78,2,FarHighWide,0.5,0.25,0.03,0.1,1,0.2757324789999984
78,3,FarHighWide,0.5,0.25,0.03,0.07943282347242815,1,0.12969196300036856
78,4,FarHighWide,0.5,0.25,0.03,0.06309573444801932,1,0.1751021630007017
78,5,FarLowWide_null,0.03,0.25,0.5,0.1,1,0.3488298520023818
78,6,FarHighNarrow,0.2,0.15,0.1,0.07943282347242815,0,0.2832876620013849
78,7,FarHighWide,0.5,0.25,0.03,0.05011872336272722,1,0.3457808400016802
78,8,FarLowWide,0.03,0.25,0.5,0.1,1,0.19160972900135675
78,9,FarHighWide,0.5,0.25,0.03,0.03981071705534971,1,0.2217927560013777
78,10,FarLowNarrow,0.1,0.15,0.2,0.07943282347242815,1,0.16421384699788177
78,11,FarHighWide,0.5,0.25,0.03,0.031622776601683784,1,0.21112365999942995
78,12,FarLowNarrow,0.1,0.15,0.2,0.06309573444801932,1,0.23930684300285066
78,13,FarLowNarrow,0.1,0.15,0.2,0.05011872336272722,1,0.13236055400193436
78,14,FarLowNarrow_null,0.1,0.15,0.2,0.1,0,0.26644456400026684
78,15,FarHighWide,0.5,0.25,0.03,0.02511886431509579,1,0.20664887599923532
78,16,FarHighNarrow,0.2,0.15,0.1,0.1,1,0.2200030109997897
78,17,ThreeLinesControl,0.0,0.0,0.1,0.1,1,0.17590532200119924
78,18,FarLowNarrow,0.1,0.15,0.2,0.03981071705534971,1,0.14898693500072113
78,19,FarLowNarrow,0.1,0.15,0.2,0.031622776601683784,1,0.17098792799879448
78,20,FarLowWide,0.03,0.25,0.5,0.07943282347242815,1,0.16140559800260235
78,21,FarHighNarrow_null,0.2,0.15,0.1,0.1,0,0.0875160670002515
78,22,FarHighWide,0.5,0.25,0.03,0.01995262314968879,1,0.17361030000029132
78,23,FarHighNarrow_null,0.2,0.15,0.1,0.1,0,0.13186844899973948
78,24,ThreeLinesControl,0.0,0.0,0.1,0.07943282347242815,1,0.21791010400193045
78,25,FarHighNarrow,0.2,0.15,0.1,0.07943282347242815,1,0.2630404260016803
78,26,FarLowWide,0.03,0.25,0.5,0.06309573444801932,1,0.18248950599809177
78,27,FarHighWide,0.5,0.25,0.03,0.015848931924611127,0,99
78,28,FarLowWide,0.03,0.25,0.5,0.05011872336272722,1,0.2085232729987183
78,29,FarHighNarrow,0.2,0.15,0.1,0.06309573444801932,1,0.1576254350002273
78,30,ThreeLinesControl,0.0,0.0,0.1,0.06309573444801932,0,99
78,31,Constant_null,0.1,0.1,0.1,0.1,1,0.29525839899724815
78,32,FarHighWide,0.5,0.25,0.03,0.01995262314968879,0,0.5412630460014043
78,33,ThreeLinesControl,0.0,0.0,0.1,0.07943282347242814,1,0.28340678500171634
78,34,FarLowWide,0.03,0.25,0.5,0.03981071705534971,1,0.10230070900070132
78,35,FarHighWide,0.5,0.25,0.03,0.025118864315095794,1,0.12426594600037788
78,36,FarLowWide,0.03,0.25,0.5,0.031622776601683784,1,0.20303086000058101
78,37,FarHighWide,0.5,0.25,0.03,0.01995262314968879,0,0.8330205579986796
78,38,Constant,0.1,0.1,0.1,0.1,1,0.27918839500125614
78,39,FarLowNarrow,0.1,0.15,0.2,0.02511886431509579,1,0.14910628099823953
78,40,FarLowNarrow,0.1,0.15,0.2,0.01995262314968879,1,0.19443108099949313
78,41,FarHighNarrow_null,0.2,0.15,0.1,0.1,0,0.6965145829999528
78,42,FarHighWide,0.5,0.25,0.03,0.025118864315095794,1,0.6229090960005124
78,43,ThreeLinesControl,0.0,0.0,0.1,0.06309573444801932,1,0.3345747849998588
78,44,FarHighWide,0.5,0.25,0.03,0.01995262314968879,1,0.572771642000589
78,45,FarHighWide,0.5,0.25,0.03,0.015848931924611127,0,0.48817531100212364
78,46,FarLowWide,0.03,0.25,0.5,0.02511886431509579,1,0.6463570570012962
78,47,FarLowNarrow,0.1,0.15,0.2,0.015848931924611127,1,0.657302168001479
78,48,FarHighNarrow,0.2,0.15,0.1,0.05011872336272722,1,0.3666401100017538
78,49,FarLowWide,0.03,0.25,0.5,0.01995262314968879,0,0.444440998002392
78,50,FarHighNarrow,0.2,0.15,0.1,0.03981071705534971,1,0.39305688999957056
78,51,Constant,0.1,0.1,0.1,0.07943282347242815,0,99
78,52,FarLowNarrow,0.1,0.15,0.2,0.012589254117941666,1,0.6532520199980354
78,53,FarLowWide,0.03,0.25,0.5,0.025118864315095794,0,99
78,54,Constant,0.1,0.1,0.1,0.1,1,0.24014635500134318
78,55,FarLowWide,0.03,0.25,0.5,0.031622776601683784,0,0.5588336889995844
78,56,FarHighNarrow,0.2,0.15,0.1,0.031622776601683784,1,0.3168466460010677
78,57,FarLowWide,0.03,0.25,0.5,0.03981071705534971,1,0.1951830500001961
78,58,FarLowNarrow,0.1,0.15,0.2,0.009999999999999995,1,0.23230288499689777
78,59,FarHighWide,0.5,0.25,0.03,0.01995262314968879,0,0.5754135800016229
78,60,FarLowNarrow,0.1,0.15,0.2,0.00794328234724281,0,0.5414960050002264
78,61,FarLowWide,0.03,0.25,0.5,0.031622776601683784,1,0.35242737299995497
78,62,FarHighWide,0.5,0.25,0.03,0.025118864315095794,1,0.36662190000060946
78,63,FarHighWide_null,0.5,0.25,0.03,0.1,1,0.5697635590004211
78,64,FarLowWide,0.03,0.25,0.5,0.02511886431509579,1,0.3037898359980318
78,65,FarHighNarrow,0.2,0.15,0.1,0.02511886431509579,1,0.5021613239987346
78,66,Constant,0.1,0.1,0.1,0.07943282347242815,1,0.5619225750015175
78,67,FarHighNarrow,0.2,0.15,0.1,0.01995262314968879,0,99
78,68,FarHighNarrow,0.2,0.15,0.1,0.025118864315095794,1,0.31042100799822947
78,69,FarLowNarrow_null,0.1,0.15,0.2,0.1,1,0.4279846629979147
78,70,FarHighNarrow,0.2,0.15,0.1,0.01995262314968879,1,0.21000280800217297
78,71,FarLowWide_null,0.03,0.25,0.5,0.07943282347242815,1,0.46380722899994
78,72,FarLowWide,0.03,0.25,0.5,0.01995262314968879,0,0.6623819500018726
78,73,FarLowNarrow,0.1,0.15,0.2,0.009999999999999995,0,99
78,74,FarHighWide,0.5,0.25,0.03,0.01995262314968879,0,0.5296003989969904
78,75,Constant,0.1,0.1,0.1,0.06309573444801932,1,0.3210238430001482
78,76,Constant,0.1,0.1,0.1,0.05011872336272722,1,0.15875438900184236
78,77,FarHighWide,0.5,0.25,0.03,0.025118864315095794,1,0.5929206639993936
78,78,FarLowNarrow,0.1,0.15,0.2,0.012589254117941666,0,0.4149923030017817
78,79,FarHighNarrow,0.2,0.15,0.1,0.015848931924611127,1,0.3408754400006728
78,80,FarHighWide,0.5,0.25,0.03,0.01995262314968879,1,0.6861176029997296
78,81,FarLowWide,0.03,0.25,0.5,0.025118864315095794,1,0.6684681920014555
78,82,FarLowWide,0.03,0.25,0.5,0.01995262314968879,1,0.5924160120011948
78,83,FarLowWide,0.03,0.25,0.5,0.015848931924611127,0,99
78,84,FarLowWide,0.03,0.25,0.5,0.01995262314968879,0,0.6683330640007625
78,85,FarHighWide,0.5,0.25,0.03,0.015848931924611127,1,0.34688041000117664
78,86,FarLowWide,0.03,0.25,0.5,0.025118864315095794,0,0.40931970900055603
78,87,Constant,0.1,0.1,0.1,0.03981071705534971,1,0.34335791600096854
78,88,ThreeLinesControl,0.0,0.0,0.1,0.05011872336272722,1,0.3176655690003827
78,89,FarLowWide,0.03,0.25,0.5,0.031622776601683784,0,0.3877314550009032
78,90,FarHighWide,0.5,0.25,0.03,0.012589254117941666,0,0.936012545000267
78,91,ThreeLinesControl,0.0,0.0,0.1,0.03981071705534971,1,0.3030279590020655
78,92,ThreeLinesControl,0.0,0.0,0.1,0.031622776601683784,1,0.27876856100192526
78,93,FarLowNarrow,0.1,0.15,0.2,0.015848931924611127,1,0.36923605099946144
78,94,FarHighNarrow_null,0.2,0.15,0.1,0.1,0,99
78,95,FarLowWide,0.03,0.25,0.5,0.03981071705534971,1,0.20534413100176607
78,96,FarHighWide,0.5,0.25,0.03,0.015848931924611127,1,0.2088318789974437
78,97,FarLowWide,0.03,0.25,0.5,0.031622776601683784,1,0.27042308900126955
78,98,FarLowWide,0.03,0.25,0.5,0.02511886431509579,1,0.40419386900248355
78,99,FarHighWide,0.5,0.25,0.03,0.012589254117941666,0,99
78,100,ThreeLinesControl,0.0,0.0,0.1,0.02511886431509579,1,0.2943585789980716
78,101,FarHighWide,0.5,0.25,0.03,0.015848931924611127,0,0.5004863729991484
78,102,ThreeLinesControl,0.0,0.0,0.1,0.01995262314968879,1,0.2824680539997644
78,103,FarHighNarrow,0.2,0.15,0.1,0.012589254117941666,0,0.32096163900132524
78,104,FarHighNarrow,0.2,0.15,0.1,0.015848931924611127,1,0.7040411559974018
78,105,FarLowNarrow,0.1,0.15,0.2,0.012589254117941666,0,99
78,106,FarHighWide_null,0.5,0.25,0.03,0.07943282347242815,1,0.5160522519981896
78,107,FarLowWide,0.03,0.25,0.5,0.01995262314968879,0,99
78,108,FarLowNarrow,0.1,0.15,0.2,0.015848931924611127,1,0.14343906099747983
78,109,FarHighNarrow,0.2,0.15,0.1,0.012589254117941666,0,99
78,110,FarLowWide,0.03,0.25,0.5,0.025118864315095794,0,0.38486324200130184
78,111,FarHighWide,0.5,0.25,0.03,0.01995262314968879,1,0.31098989300153335
78,112,Constant_null,0.1,0.1,0.1,0.07943282347242815,0,99
78,113,FarLowWide,0.03,0.25,0.5,0.031622776601683784,1,0.5920959399991261
78,114,FarLowWide,0.03,0.25,0.5,0.02511886431509579,1,1.038579067997489
78,115,Constant,0.1,0.1,0.1,0.031622776601683784,1,0.6264756359996682
78,116,FarHighWide,0.5,0.25,0.03,0.015848931924611127,0,99
78,117,Constant,0.1,0.1,0.1,0.02511886431509579,1,1.207086337999499
78,118,FarLowWide,0.03,0.25,0.5,0.01995262314968879,1,0.9251145810012531
78,119,FarLowNarrow,0.1,0.15,0.2,0.012589254117941666,0,99
78,120,FarLowWide,0.03,0.25,0.5,0.015848931924611127,0,0.34091881299900706
78,121,FarLowNarrow,0.1,0.15,0.2,0.015848931924611127,0,0.3087368980013707
78,122,ThreeLinesControl,0.0,0.0,0.1,0.015848931924611127,0,0.2502775430002657
78,123,ThreeLinesControl,0.0,0.0,0.1,0.01995262314968879,0,0.289568935000716
78,124,FarHighWide,0.5,0.25,0.03,0.01995262314968879,0,0.29369158200279344
78,125,FarHighNarrow,0.2,0.15,0.1,0.015848931924611127,0,0.2516264269979729
78,126,ThreeLinesControl,0.0,0.0,0.1,0.025118864315095794,0,0.35396614099954604
78,127,FarHighWide_null,0.5,0.25,0.03,0.06309573444801932,1,0.2932266010029707
78,128,ThreeLinesControl,0.0,0.0,0.1,0.031622776601683784,0,0.21121639200282516
78,129,FarHighNarrow,0.2,0.15,0.1,0.01995262314968879,0,0.3744972200001939
78,130,FarLowWide,0.03,0.25,0.5,0.01995262314968879,1,0.6355611889994179
78,131,FarLowNarrow,0.1,0.15,0.2,0.01995262314968879,1,0.3704910450032912
78,132,FarLowNarrow,0.1,0.15,0.2,0.015848931924611127,1,0.8879122309990635
78,133,FarLowNarrow,0.1,0.15,0.2,0.012589254117941666,0,0.6219954139996844
78,134,FarLowNarrow,0.1,0.15,0.2,0.015848931924611127,0,0.2750365680003597
78,135,FarLowNarrow_null,0.1,0.15,0.2,0.07943282347242815,1,0.22496526499890024
78,136,FarHighNarrow,0.2,0.15,0.1,0.025118864315095794,0,0.2551966459977848
78,137,FarLowWide,0.03,0.25,0.5,0.015848931924611127,0,0.48375819000284537
78,138,Constant,0.1,0.1,0.1,0.01995262314968879,1,0.38592737299768487
78,139,FarHighWide,0.5,0.25,0.03,0.025118864315095794,1,0.34541362000163645
78,140,ThreeLinesControl,0.0,0.0,0.1,0.03981071705534971,1,0.27628773900141823
78,141,FarLowWide,0.03,0.25,0.5,0.01995262314968879,0,0.3622021129995119
78,142,FarHighWide,0.5,0.25,0.03,0.01995262314968879,0,0.47221847199762124
78,143,FarLowWide,0.03,0.25,0.5,0.025118864315095794,0,0.9634810800016567
78,144,FarHighWide,0.5,0.25,0.03,0.025118864315095794,1,0.3537176300014835
78,145,Constant,0.1,0.1,0.1,0.015848931924611127,1,0.4288572550030949
78,146,FarLowNarrow,0.1,0.15,0.2,0.01995262314968879,0,0.6269883899985871
78,147,ThreeLinesControl,0.0,0.0,0.1,0.031622776601683784,1,0.33681608000188135
78,148,ThreeLinesControl,0.0,0.0,0.1,0.02511886431509579,0,99
78,149,Constant,0.1,0.1,0.1,0.012589254117941666,1,0.3326037759979954
78,150,ThreeLinesControl,0.0,0.0,0.1,0.031622776601683784,1,0.3704312830013805
78,151,FarHighWide,0.5,0.25,0.03,0.01995262314968879,1,0.46475080299933325
78,152,Constant,0.1,0.1,0.1,0.009999999999999995,1,0.7259263129999454
78,153,Constant,0.1,0.1,0.1,0.00794328234724281,0,0.5960943659993063
78,154,FarHighWide,0.5,0.25,0.03,0.015848931924611127,1,0.3552895590000844
78,155,FarHighWide,0.5,0.25,0.03,0.012589254117941666,0,0.8254107919965463
78,156,FarHighNarrow,0.2,0.15,0.1,0.031622776601683784,1,0.3814035760005936
78,157,FarHighWide,0.5,0.25,0.03,0.015848931924611127,0,99
78,158,Constant,0.1,0.1,0.1,0.009999999999999995,1,0.5779134509975847
78,159,FarLowWide,0.03,0.25,0.5,0.031622776601683784,1,0.7958941019969643
78,160,ThreeLinesControl,0.0,0.0,0.1,0.02511886431509579,1,0.434045154001069
78,161,FarLowWide,0.03,0.25,0.5,0.02511886431509579,1,0.5999586759971862
78,162,ThreeLinesControl,0.0,0.0,0.1,0.01995262314968879,1,0.435073131997342
78,163,Constant_null,0.1,0.1,0.1,0.1,1,0.4334662869987369
78,164,ThreeLinesControl_null,0.0,0.0,0.1,0.1,1,0.5677883850003127
78,165,Constant,0.1,0.1,0.1,0.00794328234724281,1,0.4377440820026095
78,166,FarLowWide,0.03,0.25,0.5,0.01995262314968879,1,0.796018933000596
78,167,Constant,0.1,0.1,0.1,0.0063095734448019285,0,0.7939710139980889
78,168,FarHighNarrow,0.2,0.15,0.1,0.02511886431509579,1,0.5270132969999395
78,169,FarHighNarrow,0.2,0.15,0.1,0.01995262314968879,0,0.41352067600018927
78,170,FarHighWide,0.5,0.25,0.03,0.01995262314968879,1,0.3636636859991995
78,171,FarLowNarrow,0.1,0.15,0.2,0.025118864315095794,1,0.4111535970005207
78,172,FarLowNarrow,0.1,0.15,0.2,0.01995262314968879,1,1.194028262001666
78,173,FarHighWide,0.5,0.25,0.03,0.015848931924611127,0,99
78,174,FarLowWide,0.03,0.25,0.5,0.015848931924611127,0,0.44324744299956365
78,175,FarLowWide,0.03,0.25,0.5,0.01995262314968879,0,0.5100206879978941
78,176,FarHighNarrow,0.2,0.15,0.1,0.025118864315095794,1,0.36375350000162143
78,177,FarLowNarrow,0.1,0.15,0.2,0.015848931924611127,1,0.5465706860013597
78,178,FarLowWide,0.03,0.25,0.5,0.025118864315095794,1,0.5097775730027934
78,179,FarHighWide,0.5,0.25,0.03,0.01995262314968879,1,0.3318968310013588
78,180,FarLowNarrow,0.1,0.15,0.2,0.012589254117941666,1,0.5700667569981306
78,181,FarHighNarrow,0.2,0.15,0.1,0.01995262314968879,1,0.47209236699927715
78,182,FarHighNarrow,0.2,0.15,0.1,0.015848931924611127,1,0.34126615800050786
78,183,FarLowNarrow_null,0.1,0.15,0.2,0.06309573444801932,1,0.9634723480012326
78,184,FarHighWide,0.5,0.25,0.03,0.015848931924611127,1,0.7215995670012489
78,185,FarLowWide,0.03,0.25,0.5,0.01995262314968879,1,0.3598291109992715
78,186,FarHighWide_null,0.5,0.25,0.03,0.05011872336272722,0,0.27850455899897497
78,187,FarHighNarrow_null,0.2,0.15,0.1,0.1,0,0.27731799600223894
78,188,FarLowWide,0.03,0.25,0.5,0.015848931924611127,1,0.8994926720006333
78,189,Constant,0.1,0.1,0.1,0.00794328234724281,0,0.6951342829997884
78,190,FarLowNarrow,0.1,0.15,0.2,0.009999999999999995,1,0.6682089059977443
78,191,FarHighWide,0.5,0.25,0.03,0.012589254117941666,1,0.32732119299907936
78,192,FarHighNarrow,0.2,0.15,0.1,0.012589254117941666,1,0.3816804299967771
78,193,FarHighWide,0.5,0.25,0.03,0.009999999999999995,1,0.259968944999855
78,194,Constant,0.1,0.1,0.1,0.009999999999999995,1,0.6710948700019799
78,195,FarHighWide,0.5,0.25,0.03,0.00794328234724281,1,0.30825153600017074
78,196,FarLowWide,0.03,0.25,0.5,0.012589254117941666,0,99
78,197,Constant,0.1,0.1,0.1,0.00794328234724281,1,0.6965096099993389
78,198,FarHighNarrow,0.2,0.15,0.1,0.009999999999999995,1,0.6387510419990576
78,199,FarHighNarrow,0.2,0.15,0.1,0.00794328234724281,1,0.5317473430004611
78,200,ThreeLinesControl,0.0,0.0,0.1,0.015848931924611127,1,0.4661229720004485
78,201,ThreeLinesControl,0.0,0.0,0.1,0.012589254117941666,0,0.4082035450010153
78,202,FarLowWide,0.03,0.25,0.5,0.015848931924611127,1,0.35029200200006017
78,203,FarLowNarrow,0.1,0.15,0.2,0.00794328234724281,1,0.4457810799976869
78,204,FarHighNarrow_null,0.2,0.15,0.1,0.1,0,0.3158459349979239
78,205,Constant,0.1,0.1,0.1,0.0063095734448019285,0,0.6796683850006957
78,206,FarHighNarrow,0.2,0.15,0.1,0.0063095734448019285,1,0.7088352520004264
78,207,FarHighWide,0.5,0.25,0.03,0.0063095734448019285,1,0.39485780699760653
78,208,FarLowWide_null,0.03,0.25,0.5,0.06309573444801932,0,99
78,209,FarLowWide,0.03,0.25,0.5,0.012589254117941666,0,0.6283269230007136
78,210,Constant,0.1,0.1,0.1,0.00794328234724281,1,0.6085523529982311
78,211,Constant,0.1,0.1,0.1,0.0063095734448019285,0,99
78,212,Constant,0.1,0.1,0.1,0.00794328234724281,1,0.34084268199876533
78,213,FarHighNarrow,0.2,0.15,0.1,0.005011872336272719,0,0.7377845570008503
78,214,FarHighWide,0.5,0.25,0.03,0.005011872336272719,1,0.4000465310018626
78,215,FarLowNarrow,0.1,0.15,0.2,0.0063095734448019285,0,0.3262873089988716
78,216,FarHighWide,0.5,0.25,0.03,0.00398107170553497,1,0.28433783299988136
78,217,ThreeLinesControl,0.0,0.0,0.1,0.015848931924611127,0,0.3546016110012715
78,218,FarHighNarrow,0.2,0.15,0.1,0.0063095734448019285,1,0.18357954200109816
78,219,Constant,0.1,0.1,0.1,0.0063095734448019285,1,0.7112462939985562
78,220,FarLowWide,0.03,0.25,0.5,0.015848931924611127,1,0.4060328430023219
78,221,Constant,0.1,0.1,0.1,0.005011872336272719,0,0.4001142909983173
78,222,FarHighNarrow,0.2,0.15,0.1,0.005011872336272719,1,0.39835484599825577
78,223,FarHighWide,0.5,0.25,0.03,0.0031622776601683772,1,0.4524000099991099
78,224,ThreeLinesControl,0.0,0.0,0.1,0.01995262314968879,1,0.7434498740003619
78,225,FarHighWide,0.5,0.25,0.03,0.002511886431509578,0,0.5577033599984134
78,226,FarHighWide,0.5,0.25,0.03,0.0031622776601683772,1,0.33993500900032814
78,227,Constant,0.1,0.1,0.1,0.0063095734448019285,0,0.4160563599980378
78,228,FarLowNarrow,0.1,0.15,0.2,0.00794328234724281,0,1.0211372559970187
78,229,FarHighNarrow,0.2,0.15,0.1,0.00398107170553497,1,0.37124234000293654
78,230,FarHighWide,0.5,0.25,0.03,0.002511886431509578,0,0.7054899049981032
78,231,FarLowNarrow,0.1,0.15,0.2,0.009999999999999995,0,0.6876434449986846
78,232,FarHighWide,0.5,0.25,0.03,0.0031622776601683772,1,0.33364917599828914
78,233,ThreeLinesControl,0.0,0.0,0.1,0.015848931924611127,1,0.7881955789998756
78,234,FarLowWide,0.03,0.25,0.5,0.012589254117941666,0,0.3940600239984633
78,235,FarLowNarrow,0.1,0.15,0.2,0.012589254117941666,0,99
78,236,FarHighWide,0.5,0.25,0.03,0.002511886431509578,1,0.41337903100065887
78,237,FarLowNarrow,0.1,0.15,0.2,0.015848931924611127,1,0.8323293549983646
78,238,FarHighNarrow,0.2,0.15,0.1,0.0031622776601683772,0,99
78,239,ThreeLinesControl,0.0,0.0,0.1,0.012589254117941666,0,0.7248491589998594
78,240,FarLowNarrow,0.1,0.15,0.2,0.012589254117941666,0,0.7853604379997705
78,241,FarHighWide,0.5,0.25,0.03,0.001995262314968878,0,0.44407764700008556
78,242,ThreeLinesControl,0.0,0.0,0.1,0.015848931924611127,0,0.2741821039999195
78,243,FarHighNarrow,0.2,0.15,0.1,0.00398107170553497,0,0.2131100480000896
78,244,FarHighWide,0.5,0.25,0.03,0.002511886431509578,0,0.5475709339989407
78,245,Constant,0.1,0.1,0.1,0.00794328234724281,0,0.29752267000003485
78,246,Constant,0.1,0.1,0.1,0.009999999999999995,0,0.30987379799989867
78,247,ThreeLinesControl,0.0,0.0,0.1,0.01995262314968879,0,0.24386952900022152
78,248,Constant,0.1,0.1,0.1,0.012589254117941666,0,0.2651009660003183
78,249,ThreeLinesControl,0.0,0.0,0.1,0.025118864315095794,0,0.23068224700182327
78,250,FarLowNarrow,0.1,0.15,0.2,0.015848931924611127,1,0.5172569160022249
78,251,Constant,0.1,0.1,0.1,0.015848931924611127,1,0.2594758039995213
78,252,FarHighNarrow_null,0.2,0.15,0.1,0.1,1,0.5142545099988638
78,253,FarLowNarrow,0.1,0.15,0.2,0.012589254117941666,1,0.3279235809968668
78,254,ThreeLinesControl,0.0,0.0,0.1,0.031622776601683784,1,0.46797348499967484
78,255,ThreeLinesControl,0.0,0.0,0.1,0.02511886431509579,1,0.6268478000019968
78,256,Constant,0.1,0.1,0.1,0.012589254117941666,0,0.36109197000041604
78,257,FarLowWide,0.03,0.25,0.5,0.015848931924611127,0,0.49228488600056153
78,258,Constant,0.1,0.1,0.1,0.015848931924611127,1,0.41856902899962733
78,259,FarHighNarrow,0.2,0.15,0.1,0.00501187233627272,0,0.3527002450027794
78,260,ThreeLinesControl,0.0,0.0,0.1,0.01995262314968879,1,0.48395795000033104
78,261,FarHighNarrow,0.2,0.15,0.1,0.006309573444801929,1,0.8261316639982397
78,262,FarHighWide,0.5,0.25,0.03,0.0031622776601683772,0,0.3102309370005969
78,263,FarLowNarrow,0.1,0.15,0.2,0.009999999999999995,1,0.47628508400157443
78,264,FarHighWide,0.5,0.25,0.03,0.00398107170553497,0,0.330389164002554
78,265,FarLowWide,0.03,0.25,0.5,0.01995262314968879,1,0.42486634899978526
78,266,FarLowWide,0.03,0.25,0.5,0.015848931924611127,0,0.2466131500004849
78,267,FarHighWide_null,0.5,0.25,0.03,0.06309573444801932,1,0.604071647998353
78,268,FarHighWide,0.5,0.25,0.03,0.00501187233627272,0,99
78,269,FarHighWide,0.5,0.25,0.03,0.006309573444801929,0,0.5773678609984927
78,270,FarHighNarrow,0.2,0.15,0.1,0.00501187233627272,0,0.4373843300018052
78,271,ThreeLinesControl,0.0,0.0,0.1,0.015848931924611127,0,0.4673950100004731
78,272,FarLowNarrow,0.1,0.15,0.2,0.00794328234724281,1,0.5138083520032524
78,273,Constant,0.1,0.1,0.1,0.012589254117941666,0,0.28515189699828625
78,274,Constant,0.1,0.1,0.1,0.015848931924611127,0,99
78,275,FarLowWide,0.03,0.25,0.5,0.01995262314968879,1,0.5609461759995611
78,276,FarHighNarrow,0.2,0.15,0.1,0.006309573444801929,1,0.4364460470023914
78,277,ThreeLinesControl,0.0,0.0,0.1,0.01995262314968879,0,0.35443371099972865
78,278,Constant,0.1,0.1,0.1,0.01995262314968879,1,0.5024458389998472
78,279,FarHighWide,0.5,0.25,0.03,0.007943282347242812,0,0.420793021999998
78,280,FarHighWide_null,0.5,0.25,0.03,0.05011872336272722,1,0.44281666099777794
78,281,FarLowNarrow,0.1,0.15,0.2,0.0063095734448019285,1,0.4010748719992989
78,282,FarHighWide,0.5,0.25,0.03,0.009999999999999997,1,0.5749632459992426
78,283,FarLowNarrow,0.1,0.15,0.2,0.005011872336272719,0,0.7081326119987352
78,284,FarHighWide,0.5,0.25,0.03,0.007943282347242812,0,0.7235650330003409
78,285,FarLowNarrow,0.1,0.15,0.2,0.0063095734448019285,0,0.5070757889989181
78,286,ThreeLinesControl,0.0,0.0,0.1,0.025118864315095794,1,0.35417705700092483
78,287,FarLowNarrow,0.1,0.15,0.2,0.00794328234724281,1,0.5968662689992925
78,288,FarHighNarrow,0.2,0.15,0.1,0.00501187233627272,0,99
78,289,FarLowWide,0.03,0.25,0.5,0.015848931924611127,0,0.350150237998605
78,290,Constant,0.1,0.1,0.1,0.015848931924611127,1,0.620429841997975
78,291,ThreeLinesControl,0.0,0.0,0.1,0.01995262314968879,1,0.5305828019991168
78,292,Constant_null,0.1,0.1,0.1,0.07943282347242815,1,0.38959406100184424
78,293,Constant,0.1,0.1,0.1,0.012589254117941666,0,0.3960054509989277
78,294,ThreeLinesControl,0.0,0.0,0.1,0.015848931924611127,1,0.641917705997912
78,295,FarLowNarrow,0.1,0.15,0.2,0.0063095734448019285,0,0.5991074980011035
78,296,ThreeLinesControl,0.0,0.0,0.1,0.012589254117941666,0,0.3331977670022752
78,297,FarHighWide,0.5,0.25,0.03,0.009999999999999997,1,0.7074729010018928
78,298,ThreeLinesControl_null,0.0,0.0,0.1,0.07943282347242815,1,0.3934807890000229
78,299,ThreeLinesControl,0.0,0.0,0.1,0.015848931924611127,0,0.3985648929992749
78,300,FarHighWide,0.5,0.25,0.03,0.007943282347242812,0,0.7499859429990465
78,301,FarLowNarrow,0.1,0.15,0.2,0.00794328234724281,0,99
78,302,ThreeLinesControl,0.0,0.0,0.1,0.01995262314968879,1,0.8032667290026438
78,303,FarLowNarrow,0.1,0.15,0.2,0.009999999999999995,0,0.3833199639993836
78,304,Constant,0.1,0.1,0.1,0.015848931924611127,0,0.31751604999954
78,305,FarHighNarrow_null,0.2,0.15,0.1,0.07943282347242815,1,0.3076180440002645
78,306,Constant,0.1,0.1,0.1,0.01995262314968879,1,0.8065879059977306
78,307,FarHighNarrow_null,0.2,0.15,0.1,0.06309573444801932,1,0.8278338320014882
78,308,Constant,0.1,0.1,0.1,0.015848931924611127,1,0.49512656700244406
78,309,FarLowNarrow,0.1,0.15,0.2,0.012589254117941666,1,0.5072255240011145
78,310,ThreeLinesControl,0.0,0.0,0.1,0.015848931924611127,1,0.4732075150022865
78,311,ThreeLinesControl,0.0,0.0,0.1,0.012589254117941666,0,0.8545478779997211
78,312,ThreeLinesControl,0.0,0.0,0.1,0.015848931924611127,1,0.35626674000013736
78,313,FarLowNarrow_null,0.1,0.15,0.2,0.05011872336272722,1,0.3067289569989953
78,314,FarHighWide,0.5,0.25,0.03,0.009999999999999997,0,0.6811380639992421
78,315,FarLowWide,0.03,0.25,0.5,0.01995262314968879,0,0.4309852589976799
78,316,FarHighWide,0.5,0.25,0.03,0.012589254117941668,1,0.29311670499737374
78,317,FarLowNarrow,0.1,0.15,0.2,0.009999999999999995,0,0.41256002099908073
78,318,FarHighWide,0.5,0.25,0.03,0.009999999999999997,0,0.47476758700213395
78,319,ThreeLinesControl_null,0.0,0.0,0.1,0.06309573444801932,1,0.3987006539973663
78,320,ThreeLinesControl,0.0,0.0,0.1,0.012589254117941666,1,0.30118478599979426
78,321,Constant,0.1,0.1,0.1,0.012589254117941666,0,0.41083555999648524
78,322,FarLowWide,0.03,0.25,0.5,0.025118864315095794,1,0.5662200749975455
78,323,ThreeLinesControl,0.0,0.0,0.1,0.009999999999999995,0,99
78,324,FarLowNarrow,0.1,0.15,0.2,0.012589254117941666,0,0.37545435200081556
78,325,FarHighNarrow,0.2,0.15,0.1,0.006309573444801929,0,0.1971811670009629
78,326,Constant,0.1,0.1,0.1,0.015848931924611127,0,0.2104832320001151
78,327,FarHighNarrow,0.2,0.15,0.1,0.007943282347242812,0,0.2007378839989542
78,328,FarHighNarrow,0.2,0.15,0.1,0.009999999999999997,0,0.1989547279990802
78,329,FarLowWide,0.03,0.25,0.5,0.01995262314968879,0,0.3172205090013449
78,330,FarHighWide_null,0.5,0.25,0.03,0.03981071705534971,1,0.24332457200216595
78,331,Constant,0.1,0.1,0.1,0.01995262314968879,1,0.34416081699964707
78,332,ThreeLinesControl,0.0,0.0,0.1,0.012589254117941666,0,0.32646497399764485
78,333,ThreeLinesControl,0.0,0.0,0.1,0.015848931924611127,0,0.3419480590018793
78,334,Constant,0.1,0.1,0.1,0.015848931924611127,1,0.39649762499902863
78,335,FarLowNarrow,0.1,0.15,0.2,0.015848931924611127,0,0.3281101420034247
78,336,FarHighWide,0.5,0.25,0.03,0.012589254117941668,0,0.43022079300135374
78,337,Constant,0.1,0.1,0.1,0.012589254117941666,0,0.6124532139983785
78,338,FarLowWide,0.03,0.25,0.5,0.025118864315095794,0,0.36756166000122903
78,339,FarLowNarrow_null,0.1,0.15,0.2,0.03981071705534971,0,0.36444863700307906
78,340,FarHighWide,0.5,0.25,0.03,0.01584893192461113,0,0.3947513839993917
78,341,FarLowNarrow,0.1,0.15,0.2,0.01995262314968879,1,0.5258264420008345
78,342,FarHighWide,0.5,0.25,0.03,0.019952623149688792,0,0.3159099119984603
78,343,Constant,0.1,0.1,0.1,0.015848931924611127,1,0.4742708430021594
78,344,FarLowWide,0.03,0.25,0.5,0.031622776601683784,0,1.1122485840023728
78,345,FarHighWide,0.5,0.25,0.03,0.025118864315095798,1,0.4226635679988249
78,346,Constant,0.1,0.1,0.1,0.012589254117941666,0,0.3809378830010246
78,347,ThreeLinesControl,0.0,0.0,0.1,0.01995262314968879,0,0.3467623380020086
78,348,FarHighWide,0.5,0.25,0.03,0.019952623149688792,1,0.45607845400081715
78,349,Constant,0.1,0.1,0.1,0.015848931924611127,1,0.47040190000188886
78,350,FarHighNarrow,0.2,0.15,0.1,0.012589254117941668,0,0.4296763330021349
78,351,ThreeLinesControl,0.0,0.0,0.1,0.025118864315095794,0,99
78,352,ThreeLinesControl_null,0.0,0.0,0.1,0.05011872336272722,1,0.46355278299961356
78,353,FarHighNarrow,0.2,0.15,0.1,0.01584893192461113,1,0.4216841209999984
78,354,Constant_null,0.1,0.1,0.1,0.06309573444801932,1,0.2405965420002758
78,355,FarHighNarrow,0.2,0.15,0.1,0.012589254117941668,1,0.3346630029991502
78,356,FarLowNarrow,0.1,0.15,0.2,0.015848931924611127,1,0.5323805269981676
78,357,ThreeLinesControl,0.0,0.0,0.1,0.031622776601683784,1,0.42436936399826664
78,358,FarHighWide,0.5,0.25,0.03,0.01584893192461113,1,0.17426458500267472
78,359,ThreeLinesControl_null,0.0,0.0,0.1,0.03981071705534971,1,0.3085973930028558
78,360,FarHighWide,0.5,0.25,0.03,0.012589254117941668,0,0.577345375000732
78,361,FarHighNarrow,0.2,0.15,0.1,0.009999999999999997,0,0.25447666000036406
78,362,ThreeLinesControl,0.0,0.0,0.1,0.02511886431509579,0,0.2373169450002024
78,363,Constant_null,0.1,0.1,0.1,0.05011872336272722,1,0.28454193200013833
78,364,ThreeLinesControl,0.0,0.0,0.1,0.031622776601683784,0,0.2714756750028755
78,365,FarHighNarrow,0.2,0.15,0.1,0.012589254117941668,0,99
78,366,FarHighNarrow,0.2,0.15,0.1,0.01584893192461113,1,0.346480463998887
78,367,Constant,0.1,0.1,0.1,0.012589254117941666,1,0.36558951000188245
78,368,ThreeLinesControl,0.0,0.0,0.1,0.03981071705534971,1,0.3235187489990494
78,369,FarHighNarrow,0.2,0.15,0.1,0.012589254117941668,0,0.3381877909996547
78,370,FarHighNarrow,0.2,0.15,0.1,0.01584893192461113,1,0.3408465200009232
78,371,FarLowNarrow,0.1,0.15,0.2,0.012589254117941666,0,0.3635156089985685
78,372,FarLowNarrow,0.1,0.15,0.2,0.015848931924611127,0,0.513439037000353
78,373,FarLowWide,0.03,0.25,0.5,0.03981071705534971,1,0.2716121689991269
78,374,ThreeLinesControl,0.0,0.0,0.1,0.031622776601683784,1,0.4776567890003207
78,375,FarHighWide,0.5,0.25,0.03,0.01584893192461113,1,0.37985536500127637
78,376,ThreeLinesControl,0.0,0.0,0.1,0.02511886431509579,1,0.3212557810002181
78,377,FarHighNarrow,0.2,0.15,0.1,0.012589254117941668,1,0.2791270279994933
78,378,FarLowNarrow,0.1,0.15,0.2,0.01995262314968879,1,0.3176204930023232
78,379,ThreeLinesControl,0.0,0.0,0.1,0.01995262314968879,1,0.2849660930005484
78,380,FarLowNarrow,0.1,0.15,0.2,0.015848931924611127,1,0.5118021730013425
78,381,FarHighWide,0.5,0.25,0.03,0.012589254117941668,1,0.3658514719973027
78,382,FarHighNarrow,0.2,0.15,0.1,0.009999999999999997,1,0.49203871699864976
78,383,FarLowNarrow,0.1,0.15,0.2,0.012589254117941666,1,0.3671624000016891
78,384,FarLowNarrow,0.1,0.15,0.2,0.009999999999999995,1,0.7253594160029024
78,385,FarLowWide_null,0.03,0.25,0.5,0.07943282347242814,1,0.39445027799956733
78,386,FarHighWide,0.5,0.25,0.03,0.009999999999999997,0,99
78,387,Constant,0.1,0.1,0.1,0.009999999999999995,1,0.3323163340028259
78,388,FarHighNarrow,0.2,0.15,0.1,0.007943282347242812,1,0.5389454140022281
78,389,FarHighNarrow,0.2,0.15,0.1,0.006309573444801929,0,0.4088778889999958
78,390,Constant,0.1,0.1,0.1,0.00794328234724281,1,0.25511742500020773
78,391,FarHighNarrow,0.2,0.15,0.1,0.007943282347242812,0,0.4521517590001167
78,392,Constant,0.1,0.1,0.1,0.0063095734448019285,0,0.2980160759980208
78,393,FarHighWide,0.5,0.25,0.03,0.012589254117941668,0,0.616757570001937
78,394,Constant,0.1,0.1,0.1,0.00794328234724281,0,0.5346218199993018
78,395,FarLowNarrow,0.1,0.15,0.2,0.00794328234724281,0,0.34853104800276924
78,396,FarLowWide,0.03,0.25,0.5,0.031622776601683784,1,0.43543044599937275
78,397,Constant,0.1,0.1,0.1,0.009999999999999995,0,99
78,398,FarHighWide,0.5,0.25,0.03,0.01584893192461113,1,0.38933402900147485
78,399,Constant,0.1,0.1,0.1,0.012589254117941666,0,0.479524954000226
78,400,ThreeLinesControl_null,0.0,0.0,0.1,0.031622776601683784,1,0.3894515339998179
78,401,ThreeLinesControl,0.0,0.0,0.1,0.015848931924611127,1,0.49180179800168844
78,402,FarLowWide_null,0.03,0.25,0.5,0.06309573444801932,1,0.32772666299933917
78,403,FarLowWide,0.03,0.25,0.5,0.02511886431509579,1,0.32614805699995486
78,404,ThreeLinesControl,0.0,0.0,0.1,0.012589254117941666,0,0.276420815000165
78,405,FarLowNarrow,0.1,0.15,0.2,0.009999999999999995,1,1.1943741480026802
78,406,Constant,0.1,0.1,0.1,0.015848931924611127,1,0.35270584500176483
78,407,Constant,0.1,0.1,0.1,0.012589254117941666,1,0.5507678699977987
78,408,FarLowWide,0.03,0.25,0.5,0.01995262314968879,0,0.2595960319995356
78,409,FarLowNarrow,0.1,0.15,0.2,0.00794328234724281,1,0.8657669469976099
78,410,Constant,0.1,0.1,0.1,0.009999999999999995,1,0.4232847320017754
78,411,FarLowWide,0.03,0.25,0.5,0.025118864315095794,0,0.23687880599754862
78,412,Constant,0.1,0.1,0.1,0.00794328234724281,1,0.5074410380002519
78,413,FarHighNarrow,0.2,0.15,0.1,0.009999999999999997,0,0.2866338999992877
78,414,FarLowWide_null,0.03,0.25,0.5,0.05011872336272722,1,0.41198585299935075
78,415,FarLowWide,0.03,0.25,0.5,0.031622776601683784,1,0.3148714580020169
78,416,Constant,0.1,0.1,0.1,0.0063095734448019285,1,0.7581080220006697
78,417,Constant,0.1,0.1,0.1,0.005011872336272719,0,0.3402455120012746
78,418,FarHighWide,0.5,0.25,0.03,0.012589254117941668,1,0.9044083929984481
78,419,FarLowWide,0.03,0.25,0.5,0.02511886431509579,1,0.5022819339974376
78,420,FarLowNarrow,0.1,0.15,0.2,0.0063095734448019285,1,0.5326271699996141
78,421,FarLowWide_null,0.03,0.25,0.5,0.03981071705534971,1,0.2977443640011188
78,422,Constant,0.1,0.1,0.1,0.0063095734448019285,0,0.5280249749994255
78,423,FarLowWide,0.03,0.25,0.5,0.01995262314968879,1,0.7721709449979244
78,424,FarLowWide,0.03,0.25,0.5,0.015848931924611127,0,0.4194362260022899
78,425,FarHighNarrow,0.2,0.15,0.1,0.012589254117941668,0,0.4264804999984335
78,426,FarHighWide,0.5,0.25,0.03,0.009999999999999997,1,0.30355442500149366
78,427,ThreeLinesControl,0.0,0.0,0.1,0.015848931924611127,0,0.28436288500233786
78,428,FarHighWide_null,0.5,0.25,0.03,0.031622776601683784,0,0.32401971199942636
78,429,FarLowNarrow,0.1,0.15,0.2,0.005011872336272719,1,0.31095793599888566
78,430,FarLowWide,0.03,0.25,0.5,0.01995262314968879,1,0.24497852999775205
78,431,FarLowWide,0.03,0.25,0.5,0.015848931924611127,0,0.24319267100145225
78,432,FarLowNarrow,0.1,0.15,0.2,0.00398107170553497,1,0.5821418099985749
78,433,FarHighNarrow,0.2,0.15,0.1,0.01584893192461113,1,0.6365502990011009
78,434,ThreeLinesControl,0.0,0.0,0.1,0.01995262314968879,1,0.3137749309971696
78,435,FarLowNarrow,0.1,0.15,0.2,0.0031622776601683772,0,0.3748256330000004
78,436,FarLowWide,0.03,0.25,0.5,0.01995262314968879,1,0.5322792199985997
78,437,FarHighWide,0.5,0.25,0.03,0.007943282347242812,1,0.5950956649976433
78,438,FarHighWide,0.5,0.25,0.03,0.006309573444801929,1,0.40905679000206874
78,439,FarLowWide,0.03,0.25,0.5,0.015848931924611127,0,0.36669923800218385
78,440,ThreeLinesControl,0.0,0.0,0.1,0.015848931924611127,1,0.39787265799895977
78,441,FarLowNarrow,0.1,0.15,0.2,0.00398107170553497,0,0.4210824949987
78,442,Constant,0.1,0.1,0.1,0.00794328234724281,1,0.4179855559996213
78,443,Constant,0.1,0.1,0.1,0.0063095734448019285,0,0.29525817899775575
78,444,FarHighWide,0.5,0.25,0.03,0.00501187233627272,1,0.26091643499967176
78,445,Constant_null,0.1,0.1,0.1,0.03981071705534971,0,1.1685561719968973
78,446,FarLowNarrow,0.1,0.15,0.2,0.00501187233627272,0,0.38245443800042267
78,447,FarLowNarrow,0.1,0.15,0.2,0.006309573444801929,0,0.44356351500027813
78,448,FarLowNarrow,0.1,0.15,0.2,0.007943282347242812,0,1.1997297349989822
78,449,FarLowWide,0.03,0.25,0.5,0.01995262314968879,0,0.3647905389989319
78,450,FarHighNarrow,0.2,0.15,0.1,0.012589254117941668,1,0.41864134799834574
78,451,Constant,0.1,0.1,0.1,0.00794328234724281,0,99
78,452,FarLowWide,0.03,0.25,0.5,0.025118864315095794,0,0.26243190000241157
78,453,FarLowNarrow,0.1,0.15,0.2,0.009999999999999997,1,0.46846135599844274
78,454,ThreeLinesControl,0.0,0.0,0.1,0.012589254117941666,0,1.1058604509998986
78,455,FarHighNarrow,0.2,0.15,0.1,0.009999999999999997,0,0.5047153180021269
78,456,FarLowWide,0.03,0.25,0.5,0.031622776601683784,1,0.40725096999813104
78,457,FarLowWide,0.03,0.25,0.5,0.02511886431509579,0,0.25318524000249454
78,458,Constant,0.1,0.1,0.1,0.009999999999999995,1,0.412591013002384
78,459,FarHighNarrow,0.2,0.15,0.1,0.012589254117941668,1,0.8243608980010322
78,460,FarHighWide_null,0.5,0.25,0.03,0.03981071705534971,0,99
78,461,FarHighNarrow,0.2,0.15,0.1,0.009999999999999997,1,1.1807471120009723
78,462,FarLowNarrow_null,0.1,0.15,0.2,0.05011872336272721,1,0.36783031600134564
78,463,ThreeLinesControl,0.0,0.0,0.1,0.015848931924611127,1,0.41413189900049474
78,464,FarHighWide_null,0.5,0.25,0.03,0.05011872336272721,0,0.36105940400011605
78,465,FarHighNarrow,0.2,0.15,0.1,0.007943282347242812,0,0.5191101829987019
78,466,FarLowNarrow,0.1,0.15,0.2,0.007943282347242812,1,0.5095252209976024
78,467,FarLowWide,0.03,0.25,0.5,0.031622776601683784,1,0.46664875299757114
78,468,Constant_null,0.1,0.1,0.1,0.05011872336272721,1,0.37577942900315975
78,469,Constant,0.1,0.1,0.1,0.00794328234724281,1,0.7256075869991037
78,470,Constant,0.1,0.1,0.1,0.0063095734448019285,1,0.43615758000305505
78,471,Constant,0.1,0.1,0.1,0.005011872336272719,0,0.4902123519968882
78,472,FarHighWide,0.5,0.25,0.03,0.00398107170553497,1,0.36059788200145704
78,473,FarLowNarrow,0.1,0.15,0.2,0.006309573444801929,0,0.30383696400167537
78,474,FarHighWide,0.5,0.25,0.03,0.0031622776601683772,1,0.3188400679973711
78,475,FarLowWide_null,0.03,0.25,0.5,0.031622776601683784,1,0.3779095409990987
78,476,FarHighWide,0.5,0.25,0.03,0.002511886431509578,1,0.2799931519984966
78,477,FarLowWide,0.03,0.25,0.5,0.02511886431509579,0,0.23017630300091696
78,478,ThreeLinesControl,0.0,0.0,0.1,0.012589254117941666,0,0.7452304399994318
78,479,FarHighNarrow,0.2,0.15,0.1,0.009999999999999997,0,0.5503354799984663
78,480,ThreeLinesControl,0.0,0.0,0.1,0.015848931924611127,0,0.3044905259994266
78,481,FarHighNarrow,0.2,0.15,0.1,0.012589254117941668,0,0.23046950099887908
78,482,ThreeLinesControl,0.0,0.0,0.1,0.01995262314968879,0,0.1709084059984889
78,483,FarLowWide,0.03,0.25,0.5,0.031622776601683784,1,0.16871829299998353
78,484,FarLowWide,0.03,0.25,0.5,0.02511886431509579,0,0.35908320499947877
78,485,FarHighWide,0.5,0.25,0.03,0.001995262314968878,0,99
78,486,ThreeLinesControl,0.0,0.0,0.1,0.025118864315095794,0,99
78,487,FarHighWide,0.5,0.25,0.03,0.002511886431509578,0,99
78,488,FarHighNarrow,0.2,0.15,0.1,0.01584893192461113,0,99
78,489,ThreeLinesControl,0.0,0.0,0.1,0.031622776601683784,0,99
78,490,FarHighNarrow,0.2,0.15,0.1,0.019952623149688792,0,99
78,491,FarLowWide,0.03,0.25,0.5,0.031622776601683784,0,99
78,492,FarLowWide,0.03,0.25,0.5,0.03981071705534971,0,99
78,493,FarLowWide,0.03,0.25,0.5,0.05011872336272721,0,99
78,494,FarHighNarrow,0.2,0.15,0.1,0.025118864315095798,0,99
78,495,FarHighWide,0.5,0.25,0.03,0.0031622776601683772,0,99
78,496,FarHighNarrow,0.2,0.15,0.1,0.03162277660168379,0,99
78,497,ThreeLinesControl,0.0,0.0,0.1,0.03981071705534971,0,99
78,498,Constant,0.1,0.1,0.1,0.0063095734448019285,0,99
78,499,ThreeLinesControl,0.0,0.0,0.1,0.05011872336272721,0,99
78,500,Constant,0.1,0.1,0.1,0.00794328234724281,0,99
78,501,FarHighNarrow,0.2,0.15,0.1,0.03981071705534973,0,99
78,502,FarLowNarrow,0.1,0.15,0.2,0.007943282347242812,0,99
78,503,ThreeLinesControl,0.0,0.0,0.1,0.0630957344480193,0,99
78,504,Constant,0.1,0.1,0.1,0.009999999999999995,0,99
78,505,Constant,0.1,0.1,0.1,0.012589254117941666,0,99
78,506,Constant,0.1,0.1,0.1,0.015848931924611127,0,99
78,507,Constant,0.1,0.1,0.1,0.01995262314968879,0,99
78,508,Constant,0.1,0.1,0.1,0.025118864315095794,0,99
78,509,FarLowWide,0.03,0.25,0.5,0.0630957344480193,0,99
78,510,Constant,0.1,0.1,0.1,0.031622776601683784,0,99
78,511,FarLowNarrow,0.1,0.15,0.2,0.009999999999999997,0,99
78,512,FarLowNarrow,0.1,0.15,0.2,0.012589254117941668,0,99
78,513,FarHighNarrow,0.2,0.15,0.1,0.050118723362727234,0,99
78,514,FarLowNarrow,0.1,0.15,0.2,0.01584893192461113,0,99
78,515,FarLowWide,0.03,0.25,0.5,0.07943282347242812,0,99
78,516,FarHighNarrow,0.2,0.15,0.1,0.06309573444801933,0,99
78,517,ThreeLinesControl,0.0,0.0,0.1,0.07943282347242812,0,99
78,518,FarHighWide,0.5,0.25,0.03,0.00398107170553497,0,99
78,519,ThreeLinesControl,0.0,0.0,0.1,0.09999999999999998,0,99
78,520,ThreeLinesControl,0.0,0.0,0.1,0.1,0,99
78,521,FarLowNarrow,0.1,0.15,0.2,0.019952623149688792,0,99
78,522,Constant,0.1,0.1,0.1,0.03981071705534971,0,99
78,523,FarHighNarrow,0.2,0.15,0.1,0.07943282347242817,0,99
78,524,FarHighWide,0.5,0.25,0.03,0.00501187233627272,0,99
78,525,Constant,0.1,0.1,0.1,0.05011872336272721,0,99
78,526,FarLowNarrow,0.1,0.15,0.2,0.025118864315095798,0,99
78,527,FarLowNarrow,0.1,0.15,0.2,0.03162277660168379,0,99
78,528,FarHighNarrow,0.2,0.15,0.1,0.1,0,99
78,529,FarHighWide,0.5,0.25,0.03,0.006309573444801929,0,99
78,530,ThreeLinesControl,0.0,0.0,0.1,0.1,0,99
78,531,FarLowWide,0.03,0.25,0.5,0.09999999999999998,0,99
78,532,ThreeLinesControl,0.0,0.0,0.1,0.1,0,99
78,533,ThreeLinesControl,0.0,0.0,0.1,0.1,0,99
78,534,Constant,0.1,0.1,0.1,0.0630957344480193,0,99
78,535,Constant,0.1,0.1,0.1,0.07943282347242812,0,99
78,536,FarHighNarrow,0.2,0.15,0.1,0.1,0,99
78,537,FarLowNarrow,0.1,0.15,0.2,0.03981071705534973,0,99
78,538,FarLowNarrow,0.1,0.15,0.2,0.050118723362727234,0,99
78,539,ThreeLinesControl,0.0,0.0,0.1,0.1,0,99
78,540,FarHighWide,0.5,0.25,0.03,0.007943282347242812,0,99
78,541,FarLowWide,0.03,0.25,0.5,0.1,0,99
78,542,FarLowWide,0.03,0.25,0.5,0.1,0,99
78,543,FarHighWide,0.5,0.25,0.03,0.009999999999999997,0,99
78,544,FarLowWide,0.03,0.25,0.5,0.1,0,99
78,545,ThreeLinesControl,0.0,0.0,0.1,0.1,0,99
78,546,FarLowNarrow,0.1,0.15,0.2,0.06309573444801933,0,99
78,547,FarLowWide,0.03,0.25,0.5,0.1,0,99
78,548,ThreeLinesControl,0.0,0.0,0.1,0.1,0,99
78,549,FarLowNarrow,0.1,0.15,0.2,0.07943282347242817,0,99
78,550,FarHighNarrow,0.2,0.15,0.1,0.1,0,99
78,551,FarLowNarrow,0.1,0.15,0.2,0.1,0,99
78,552,FarLowWide,0.03,0.25,0.5,0.1,0,99
78,553,FarLowWide,0.03,0.25,0.5,0.1,0,99
78,554,ThreeLinesControl,0.0,0.0,0.1,0.1,0,99
78,555,FarHighNarrow,0.2,0.15,0.1,0.1,0,99
78,556,Constant,0.1,0.1,0.1,0.09999999999999998,0,99
78,557,FarHighNarrow_null,0.2,0.15,0.1,0.05011872336272722,0,99
78,558,FarHighNarrow,0.2,0.15,0.1,0.1,0,99
78,559,FarLowWide,0.03,0.25,0.5,0.1,0,99
78,560,FarHighWide,0.5,0.25,0.03,0.012589254117941668,0,99
78,561,FarHighNarrow,0.2,0.15,0.1,0.1,0,99
78,562,ThreeLinesControl,0.0,0.0,0.1,0.1,0,99
78,563,FarLowNarrow,0.1,0.15,0.2,0.1,0,99
78,564,FarHighWide,0.5,0.25,0.03,0.01584893192461113,0,99
78,565,FarLowNarrow,0.1,0.15,0.2,0.1,0,99
78,566,FarLowWide,0.03,0.25,0.5,0.1,0,99
78,567,Constant,0.1,0.1,0.1,0.1,0,99
78,568,FarHighNarrow,0.2,0.15,0.1,0.1,0,99
78,569,FarHighWide,0.5,0.25,0.03,0.019952623149688792,0,99
78,570,FarHighWide,0.5,0.25,0.03,0.025118864315095798,0,99
78,571,FarLowWide,0.03,0.25,0.5,0.1,0,99
78,572,FarLowNarrow,0.1,0.15,0.2,0.1,0,99
78,573,FarHighWide,0.5,0.25,0.03,0.03162277660168379,0,99
78,574,FarHighNarrow,0.2,0.15,0.1,0.1,0,99
78,575,FarLowNarrow,0.1,0.15,0.2,0.1,0,99
78,576,ThreeLinesControl,0.0,0.0,0.1,0.1,0,99
78,577,FarHighNarrow,0.2,0.15,0.1,0.1,0,99
78,578,FarHighNarrow_null,0.2,0.15,0.1,0.06309573444801932,0,99
78,579,FarHighNarrow,0.2,0.15,0.1,0.1,0,99
78,580,FarLowNarrow,0.1,0.15,0.2,0.1,0,99
78,581,ThreeLinesControl,0.0,0.0,0.1,0.1,0,99
78,582,FarHighWide_null,0.5,0.25,0.03,0.0630957344480193,0,99
78,583,FarHighNarrow,0.2,0.15,0.1,0.1,0,99
78,584,FarLowWide,0.03,0.25,0.5,0.1,0,99
78,585,FarLowNarrow_null,0.1,0.15,0.2,0.03981071705534971,0,99
78,586,FarHighWide_null,0.5,0.25,0.03,0.07943282347242812,0,99
78,587,ThreeLinesControl,0.0,0.0,0.1,0.1,0,99
78,588,FarLowWide_null,0.03,0.25,0.5,0.02511886431509579,0,99
78,589,ThreeLinesControl,0.0,0.0,0.1,0.1,0,99
78,590,FarHighNarrow,0.2,0.15,0.1,0.1,0,99
78,591,FarHighWide_null,0.5,0.25,0.03,0.09999999999999998,0,99
78,592,FarHighWide,0.5,0.25,0.03,0.03981071705534973,0,99
78,593,ThreeLinesControl,0.0,0.0,0.1,0.1,0,99
78,594,FarLowNarrow,0.1,0.15,0.2,0.1,0,99
78,595,ThreeLinesControl,0.0,0.0,0.1,0.1,0,99
78,596,FarLowNarrow_null,0.1,0.15,0.2,0.05011872336272721,0,99
78,597,FarLowWide,0.03,0.25,0.5,0.1,0,99
78,598,FarLowWide,0.03,0.25,0.5,0.1,0,99
78,599,ThreeLinesControl,0.0,0.0,0.1,0.1,0,99
78,600,ThreeLinesControl,0.0,0.0,0.1,0.1,1,0.7593619389990636
78,601,FarLowWide,0.03,0.25,0.5,0.1,1,0.27526378000038676
78,602,FarLowNarrow,0.1,0.15,0.2,0.1,1,0.25710479599729297
78,603,Constant,0.1,0.1,0.1,0.1,1,0.3241978369987919
78,604,Constant,0.1,0.1,0.1,0.07943282347242815,1,0.23384526899826596
78,605,FarLowWide,0.03,0.25,0.5,0.07943282347242815,1,0.21544156199888675
78,606,Constant,0.1,0.1,0.1,0.06309573444801932,1,0.18708726400291198
78,607,ThreeLinesControl,0.0,0.0,0.1,0.07943282347242815,1,0.19391715600067982
78,608,Constant,0.1,0.1,0.1,0.05011872336272722,1,0.14393092899990734
78,609,FarLowWide,0.03,0.25,0.5,0.06309573444801932,1,0.13299702699805493
78,610,FarLowNarrow,0.1,0.15,0.2,0.07943282347242815,1,0.11482301900105085
78,611,Constant,0.1,0.1,0.1,0.03981071705534971,1,0.12136732299768482
78,612,FarLowWide,0.03,0.25,0.5,0.05011872336272722,1,0.07933993400001782
78,613,FarHighWide,0.5,0.25,0.03,0.050118723362727234,1,0.21369307799977832
78,614,FarHighWide,0.5,0.25,0.03,0.03981071705534973,1,0.24375726700236555
78,615,FarLowNarrow,0.1,0.15,0.2,0.06309573444801932,1,0.20276746099989396
78,616,FarLowWide,0.03,0.25,0.5,0.03981071705534971,1,0.21739566300311708
78,617,FarLowNarrow,0.1,0.15,0.2,0.05011872336272722,1,0.1645057950008777
78,618,Constant_null,0.1,0.1,0.1,0.03981071705534971,0,0.21883309799886774
78,619,FarLowNarrow,0.1,0.15,0.2,0.03981071705534971,1,0.28065000899732695
78,620,ThreeLinesControl,0.0,0.0,0.1,0.06309573444801932,1,0.24406913399798214
78,621,FarLowWide,0.03,0.25,0.5,0.031622776601683784,1,0.4180193610009155
78,622,ThreeLinesControl,0.0,0.0,0.1,0.05011872336272722,1,0.30897534300311236
78,623,ThreeLinesControl,0.0,0.0,0.1,0.03981071705534971,1,0.2911033909986145
78,624,FarLowNarrow,0.1,0.15,0.2,0.031622776601683784,1,0.3213594339977135
78,625,FarHighNarrow,0.2,0.15,0.1,0.1,1,0.3274772730001132
78,626,FarHighNarrow,0.2,0.15,0.1,0.07943282347242815,1,0.2051427149999654
78,627,FarLowWide,0.03,0.25,0.5,0.02511886431509579,0,0.9079863300030411
78,628,FarLowNarrow,0.1,0.15,0.2,0.02511886431509579,0,0.46580680400074925
78,629,Constant,0.1,0.1,0.1,0.031622776601683784,1,0.3282998670001689
78,630,FarLowWide,0.03,0.25,0.5,0.031622776601683784,1,0.39828681699873414
78,631,FarHighWide,0.5,0.25,0.03,0.03162277660168379,1,0.2931248829991091
78,632,ThreeLinesControl,0.0,0.0,0.1,0.031622776601683784,1,0.24353541299933568
78,633,FarHighWide,0.5,0.25,0.03,0.025118864315095798,1,0.27177727600064827
78,634,FarHighWide,0.5,0.25,0.03,0.019952623149688792,1,0.628966167998442
78,635,Constant,0.1,0.1,0.1,0.02511886431509579,0,99
78,636,FarHighNarrow,0.2,0.15,0.1,0.06309573444801932,1,0.2703100580001774
78,637,ThreeLinesControl,0.0,0.0,0.1,0.02511886431509579,1,0.6920029530010652
78,638,FarHighWide,0.5,0.25,0.03,0.01584893192461113,1,0.617921181001293
78,639,ThreeLinesControl_null,0.0,0.0,0.1,0.02511886431509579,1,0.35857079299967154
78,640,FarHighWide,0.5,0.25,0.03,0.012589254117941668,0,0.955867066000792
78,641,Constant,0.1,0.1,0.1,0.031622776601683784,1,0.3298597230023006
78,642,FarLowNarrow,0.1,0.15,0.2,0.031622776601683784,1,0.26414294200003496
78,643,FarHighNarrow,0.2,0.15,0.1,0.05011872336272722,1,0.286228613997082
78,644,ThreeLinesControl,0.0,0.0,0.1,0.01995262314968879,1,0.3725088049977785
78,645,FarHighWide,0.5,0.25,0.03,0.01584893192461113,1,0.22654348400101298
78,646,FarLowNarrow,0.1,0.15,0.2,0.02511886431509579,1,0.368617734999134
78,647,FarHighNarrow,0.2,0.15,0.1,0.03981071705534971,1,0.2620230200009246
78,648,FarHighNarrow,0.2,0.15,0.1,0.031622776601683784,1,0.21994202399946516
78,649,Constant,0.1,0.1,0.1,0.02511886431509579,1,0.888324064999324
78,650,ThreeLinesControl,0.0,0.0,0.1,0.015848931924611127,1,0.35792975799995475
78,651,FarHighWide,0.5,0.25,0.03,0.012589254117941668,0,0.5643927639976027
78,652,FarLowNarrow,0.1,0.15,0.2,0.01995262314968879,0,0.3105994559991814
78,653,Constant,0.1,0.1,0.1,0.01995262314968879,1,0.44442159199752496
78,654,Constant,0.1,0.1,0.1,0.015848931924611127,1,0.4828994529998454
78,655,FarHighWide,0.5,0.25,0.03,0.01584893192461113,1,0.7589634270007082
78,656,FarLowWide,0.03,0.25,0.5,0.02511886431509579,1,0.3252838709995558
78,657,FarLowWide_null,0.03,0.25,0.5,0.031622776601683784,1,0.30613541700222413
78,658,ThreeLinesControl,0.0,0.0,0.1,0.012589254117941666,1,0.2722021890003816
78,659,Constant,0.1,0.1,0.1,0.012589254117941666,0,0.5421875169995474
78,660,ThreeLinesControl,0.0,0.0,0.1,0.009999999999999995,0,0.3804562730001635
78,661,FarLowWide,0.03,0.25,0.5,0.01995262314968879,0,0.45910246999847004
78,662,FarHighWide_null,0.5,0.25,0.03,0.1,0,0.5530091030013864
78,663,FarHighNarrow,0.2,0.15,0.1,0.02511886431509579,1,0.40781297300054575
78,664,FarLowWide,0.03,0.25,0.5,0.025118864315095794,1,0.5482151989999693
78,665,FarLowWide,0.03,0.25,0.5,0.01995262314968879,0,0.7155711710001924
78,666,FarHighWide,0.5,0.25,0.03,0.012589254117941668,0,0.7744979819981381
78,667,ThreeLinesControl,0.0,0.0,0.1,0.012589254117941666,0,0.5488616729999194
78,668,FarLowWide,0.03,0.25,0.5,0.025118864315095794,0,0.6639064799965126
78,669,ThreeLinesControl_null,0.0,0.0,0.1,0.01995262314968879,1,0.34900790200117626
78,670,FarLowWide,0.03,0.25,0.5,0.031622776601683784,1,0.411400593999133
78,671,FarLowWide,0.03,0.25,0.5,0.02511886431509579,1,0.3753455770020082
78,672,FarLowNarrow,0.1,0.15,0.2,0.025118864315095794,1,0.30946219299949007
78,673,Constant,0.1,0.1,0.1,0.015848931924611127,1,0.3475305070023751
78,674,FarHighNarrow,0.2,0.15,0.1,0.01995262314968879,1,0.5217360829992685
78,675,FarHighWide,0.5,0.25,0.03,0.01584893192461113,1,0.4310759859981772
78,676,ThreeLinesControl,0.0,0.0,0.1,0.015848931924611127,0,0.5570523170026718
78,677,FarLowWide,0.03,0.25,0.5,0.01995262314968879,1,0.876229098001204
78,678,FarLowWide,0.03,0.25,0.5,0.015848931924611127,0,0.5224796709990187
78,679,FarHighWide,0.5,0.25,0.03,0.012589254117941668,1,0.35149915399961174
78,680,FarHighWide,0.5,0.25,0.03,0.009999999999999997,1,0.44558976299958886
78,681,FarLowNarrow,0.1,0.15,0.2,0.01995262314968879,0,0.5947920689977764
78,682,ThreeLinesControl,0.0,0.0,0.1,0.01995262314968879,1,0.48604327399880276
78,683,FarHighNarrow,0.2,0.15,0.1,0.015848931924611127,0,0.4282390949992987
78,684,FarHighWide,0.5,0.25,0.03,0.007943282347242812,1,0.8261430860002292
78,685,FarHighNarrow,0.2,0.15,0.1,0.01995262314968879,1,0.5172065570004634
78,686,FarLowNarrow,0.1,0.15,0.2,0.025118864315095794,1,0.8038272400008282
78,687,ThreeLinesControl,0.0,0.0,0.1,0.015848931924611127,0,0.49575402199843666
78,688,FarHighNarrow_null,0.2,0.15,0.1,0.07943282347242814,1,0.42167374400014523
78,689,FarHighWide,0.5,0.25,0.03,0.006309573444801929,0,0.8920302829974389
78,690,ThreeLinesControl,0.0,0.0,0.1,0.01995262314968879,0,0.7140154199987592
78,691,ThreeLinesControl,0.0,0.0,0.1,0.025118864315095794,1,0.384392650998052
78,692,ThreeLinesControl,0.0,0.0,0.1,0.01995262314968879,1,0.31815094299963675
78,693,FarHighNarrow,0.2,0.15,0.1,0.015848931924611127,1,0.5965648059973319
78,694,FarLowNarrow,0.1,0.15,0.2,0.01995262314968879,1,0.3962254500002018
78,695,FarHighWide,0.5,0.25,0.03,0.007943282347242812,1,0.327844899999036
78,696,FarHighNarrow,0.2,0.15,0.1,0.012589254117941666,0,1.1445872399999644
78,697,FarLowNarrow,0.1,0.15,0.2,0.015848931924611127,1,0.5342559620003158
78,698,FarLowWide,0.03,0.25,0.5,0.01995262314968879,1,0.4484209900001588
78,699,FarLowWide,0.03,0.25,0.5,0.015848931924611127,0,0.31036131100336206
78,700,FarLowNarrow,0.1,0.15,0.2,0.012589254117941666,0,0.4446111059987743
78,701,FarHighNarrow_null,0.2,0.15,0.1,0.06309573444801932,0,0.4236742309985857
78,702,FarHighNarrow,0.2,0.15,0.1,0.015848931924611127,1,0.40580787799990503
78,703,Constant,0.1,0.1,0.1,0.012589254117941666,0,0.5471267870016163
78,704,FarHighWide,0.5,0.25,0.03,0.006309573444801929,0,0.6254029170013382
78,705,FarHighWide,0.5,0.25,0.03,0.007943282347242812,0,0.3193107430015516
78,706,Constant_null,0.1,0.1,0.1,0.05011872336272721,0,0.31642284900226514
78,707,FarHighWide,0.5,0.25,0.03,0.009999999999999997,0,0.42653347000305075
78,708,FarLowWide_null,0.03,0.25,0.5,0.02511886431509579,1,0.24865210200005095
78,709,ThreeLinesControl,0.0,0.0,0.1,0.015848931924611127,0,0.2230671790021006
78,710,Constant,0.1,0.1,0.1,0.015848931924611127,0,0.22922016200027429
78,711,FarLowWide,0.03,0.25,0.5,0.01995262314968879,0,0.43531068100128323
78,712,FarHighWide,0.5,0.25,0.03,0.012589254117941668,1,0.21651427499818965
78,713,Constant,0.1,0.1,0.1,0.01995262314968879,1,0.4624549529980868
78,714,Constant,0.1,0.1,0.1,0.015848931924611127,0,99
78,715,FarHighNarrow,0.2,0.15,0.1,0.012589254117941666,0,0.40695104699989315
78,716,FarLowWide,0.03,0.25,0.5,0.025118864315095794,1,1.2369506299983186
78,717,ThreeLinesControl,0.0,0.0,0.1,0.01995262314968879,0,0.46407422099946416
78,718,Constant,0.1,0.1,0.1,0.01995262314968879,0,0.3425131789990701
78,719,Constant,0.1,0.1,0.1,0.025118864315095794,1,0.8205341749999207
78,720,Constant,0.1,0.1,0.1,0.01995262314968879,0,0.3991083199980494
78,721,FarHighWide,0.5,0.25,0.03,0.009999999999999997,0,0.5575487640016945
78,722,FarHighNarrow,0.2,0.15,0.1,0.015848931924611127,0,0.20334260799791082
78,723,FarHighNarrow_null,0.2,0.15,0.1,0.07943282347242814,1,0.38276363800105173
78,724,FarLowNarrow,0.1,0.15,0.2,0.015848931924611127,1,0.57293620800192
78,725,ThreeLinesControl,0.0,0.0,0.1,0.025118864315095794,1,0.32821102700108895
78,726,Constant,0.1,0.1,0.1,0.025118864315095794,0,0.35001735300102155
78,727,FarHighNarrow,0.2,0.15,0.1,0.01995262314968879,0,99
78,728,Constant,0.1,0.1,0.1,0.031622776601683784,1,0.2733847909985343
78,729,FarLowWide,0.03,0.25,0.5,0.01995262314968879,0,0.26368696699864813
78,730,Constant,0.1,0.1,0.1,0.02511886431509579,0,99
78,731,FarHighWide,0.5,0.25,0.03,0.012589254117941668,0,0.5880434930004412
78,732,Constant,0.1,0.1,0.1,0.031622776601683784,1,0.31308793499920284
78,733,ThreeLinesControl,0.0,0.0,0.1,0.01995262314968879,0,0.32045825499881175
78,734,FarLowWide,0.03,0.25,0.5,0.025118864315095794,1,0.4386337010000716
78,735,FarHighWide_null,0.5,0.25,0.03,0.1,0,0.3895570400018187
78,736,FarHighNarrow,0.2,0.15,0.1,0.025118864315095794,1,0.30484823399820016
78,737,FarHighWide,0.5,0.25,0.03,0.01584893192461113,0,0.37463717900027405
78,738,FarLowWide,0.03,0.25,0.5,0.01995262314968879,0,0.3174233399986406
78,739,FarLowNarrow,0.1,0.15,0.2,0.012589254117941666,0,0.4238801819992659
78,740,FarHighNarrow,0.2,0.15,0.1,0.01995262314968879,1,0.3262709789996734
78,741,FarHighNarrow,0.2,0.15,0.1,0.015848931924611127,0,0.28418490499825566
78,742,FarLowNarrow,0.1,0.15,0.2,0.015848931924611127,1,0.7114746750012273
78,743,FarHighWide,0.5,0.25,0.03,0.019952623149688792,1,0.3017153189975943
78,744,FarHighWide,0.5,0.25,0.03,0.01584893192461113,1,0.26809671400042134
78,745,FarHighNarrow,0.2,0.15,0.1,0.01995262314968879,1,0.2662774359996547
78,746,FarLowWide,0.03,0.25,0.5,0.025118864315095794,1,0.4789501630002633
78,747,FarHighNarrow,0.2,0.15,0.1,0.015848931924611127,0,0.6211740670005383
78,748,FarLowWide,0.03,0.25,0.5,0.01995262314968879,0,0.4672516919999907
78,749,ThreeLinesControl,0.0,0.0,0.1,0.025118864315095794,1,0.4495804739999585
78,750,ThreeLinesControl,0.0,0.0,0.1,0.01995262314968879,1,0.38392987299812376
78,751,FarHighWide,0.5,0.25,0.03,0.012589254117941668,1,0.3511045900013414
78,752,FarHighWide,0.5,0.25,0.03,0.009999999999999997,1,0.4770057589994394
78,753,FarHighNarrow,0.2,0.15,0.1,0.01995262314968879,1,0.30514751199734746
78,754,FarLowNarrow_null,0.1,0.15,0.2,0.0630957344480193,0,0.4314695120010583
78,755,FarLowNarrow,0.1,0.15,0.2,0.012589254117941666,1,0.41841186999954516
78,756,Constant_null,0.1,0.1,0.1,0.0630957344480193,1,0.44869220799955656
78,757,ThreeLinesControl,0.0,0.0,0.1,0.015848931924611127,1,0.40667349599971203
78,758,FarLowNarrow,0.1,0.15,0.2,0.009999999999999995,0,0.32208413800253766
78,759,FarLowWide,0.03,0.25,0.5,0.025118864315095794,1,0.33502140600103303
78,760,FarLowNarrow,0.1,0.15,0.2,0.012589254117941666,0,0.3970564950031985
78,761,Constant,0.1,0.1,0.1,0.02511886431509579,1,0.24337575000026845
78,762,ThreeLinesControl,0.0,0.0,0.1,0.012589254117941666,0,0.33750782900096965
78,763,FarHighWide,0.5,0.25,0.03,0.007943282347242812,1,0.2877084020001348
78,764,ThreeLinesControl,0.0,0.0,0.1,0.015848931924611127,0,0.3178515219988185
78,765,ThreeLinesControl,0.0,0.0,0.1,0.01995262314968879,0,0.5069270659987524
78,766,FarHighNarrow,0.2,0.15,0.1,0.015848931924611127,1,0.35226094799872953
78,767,FarHighNarrow,0.2,0.15,0.1,0.012589254117941666,0,0.32747168700007023
78,768,FarLowWide,0.03,0.25,0.5,0.01995262314968879,1,0.621189115998277
78,769,Constant,0.1,0.1,0.1,0.01995262314968879,1,0.34446723899964127
78,770,FarHighNarrow,0.2,0.15,0.1,0.015848931924611127,0,0.3025703369967232
78,771,ThreeLinesControl,0.0,0.0,0.1,0.025118864315095794,1,0.2258478469993861
78,772,FarLowWide,0.03,0.25,0.5,0.015848931924611127,0,0.3280114799999865
78,773,FarHighWide,0.5,0.25,0.03,0.006309573444801929,1,0.326300151002215
78,774,FarHighNarrow,0.2,0.15,0.1,0.01995262314968879,0,0.32913459399787826
78,775,Constant,0.1,0.1,0.1,0.015848931924611127,0,0.3355707339978835
78,776,ThreeLinesControl,0.0,0.0,0.1,0.01995262314968879,0,0.31753481999840005
78,777,FarHighNarrow,0.2,0.15,0.1,0.025118864315095794,0,0.2280393280016142
78,778,FarLowNarrow,0.1,0.15,0.2,0.015848931924611127,1,0.5297464629984461
78,779,FarHighNarrow,0.2,0.15,0.1,0.031622776601683784,1,0.23904874700019718
78,780,Constant,0.1,0.1,0.1,0.01995262314968879,0,0.30922549399838317
78,781,FarHighNarrow,0.2,0.15,0.1,0.02511886431509579,1,0.23528135800006567
78,782,FarHighNarrow,0.2,0.15,0.1,0.01995262314968879,0,0.6496349250010098
78,783,FarLowNarrow,0.1,0.15,0.2,0.012589254117941666,0,0.4799929480032006
78,784,FarHighNarrow_null,0.2,0.15,0.1,0.06309573444801932,0,0.24716551500023343
78,785,ThreeLinesControl,0.0,0.0,0.1,0.025118864315095794,1,0.4977086340004462
78,786,ThreeLinesControl,0.0,0.0,0.1,0.01995262314968879,0,0.31219621900163474
78,787,FarLowNarrow,0.1,0.15,0.2,0.015848931924611127,1,0.1981896510005754
78,788,FarLowWide,0.03,0.25,0.5,0.01995262314968879,0,0.36167630099953385
78,789,ThreeLinesControl,0.0,0.0,0.1,0.025118864315095794,1,0.5436150270033977
78,790,FarHighNarrow,0.2,0.15,0.1,0.025118864315095794,1,0.4985651280003367
78,791,FarHighWide,0.5,0.25,0.03,0.00501187233627272,1,0.320942930997262
78,792,FarHighNarrow,0.2,0.15,0.1,0.01995262314968879,0,0.37505505199806066
78,793,FarHighNarrow,0.2,0.15,0.1,0.025118864315095794,1,0.2771914749973803
78,794,FarLowWide,0.03,0.25,0.5,0.025118864315095794,0,0.3473782109977037
78,795,Constant,0.1,0.1,0.1,0.025118864315095794,1,0.24021828600234585
78,796,FarLowNarrow,0.1,0.15,0.2,0.012589254117941666,0,0.3582905839975865
78,797,FarLowNarrow,0.1,0.15,0.2,0.015848931924611127,1,0.27697283900124603
78,798,FarHighNarrow_null,0.2,0.15,0.1,0.07943282347242814,1,0.626848946998507
78,799,ThreeLinesControl,0.0,0.0,0.1,0.01995262314968879,1,0.3293739480031945
78,800,FarLowWide,0.03,0.25,0.5,0.031622776601683784,1,0.4885409630005597
78,801,ThreeLinesControl,0.0,0.0,0.1,0.015848931924611127,0,0.46717828799955896
78,802,FarHighWide,0.5,0.25,0.03,0.00398107170553497,0,99
78,803,FarLowWide,0.03,0.25,0.5,0.02511886431509579,0,0.32693220999863115
78,804,FarHighWide,0.5,0.25,0.03,0.00501187233627272,0,0.47471851099908235
78,805,ThreeLinesControl_null,0.0,0.0,0.1,0.015848931924611127,1,0.272043492001103
78,806,FarLowNarrow,0.1,0.15,0.2,0.012589254117941666,0,0.34201719399789
78,807,FarLowWide,0.03,0.25,0.5,0.031622776601683784,1,0.42635176700059674
78,808,FarLowWide,0.03,0.25,0.5,0.02511886431509579,1,0.5122374669990677
78,809,ThreeLinesControl_null,0.0,0.0,0.1,0.012589254117941666,1,0.4305369290013914
78,810,FarHighWide,0.5,0.25,0.03,0.006309573444801929,0,0.5795976549998159
78,811,FarLowNarrow,0.1,0.15,0.2,0.015848931924611127,0,0.521841208999831
78,812,FarHighWide_null,0.5,0.25,0.03,0.1,1,0.3518196529985289
78,813,ThreeLinesControl,0.0,0.0,0.1,0.01995262314968879,1,0.3979101549994084
78,814,Constant,0.1,0.1,0.1,0.01995262314968879,0,0.252300666001247
78,815,FarHighWide,0.5,0.25,0.03,0.007943282347242812,0,0.2748288090006099
78,816,FarLowWide,0.03,0.25,0.5,0.01995262314968879,0,0.20185517299978528
78,817,FarHighWide,0.5,0.25,0.03,0.009999999999999997,0,0.3327780690015061
78,818,FarLowNarrow,0.1,0.15,0.2,0.01995262314968879,1,0.3939373639987025
78,819,FarHighNarrow,0.2,0.15,0.1,0.01995262314968879,1,0.2559360389968788
78,820,ThreeLinesControl,0.0,0.0,0.1,0.015848931924611127,0,0.25129265899886377
78,821,ThreeLinesControl,0.0,0.0,0.1,0.01995262314968879,1,0.377390462999756
78,822,ThreeLinesControl,0.0,0.0,0.1,0.015848931924611127,1,0.43145637099951273
78,823,FarLowWide,0.03,0.25,0.5,0.025118864315095794,1,0.36264682700129924
78,824,ThreeLinesControl,0.0,0.0,0.1,0.012589254117941666,1,0.2797625139974116
78,825,Constant,0.1,0.1,0.1,0.025118864315095794,1,0.46967883500110474
78,826,FarLowNarrow,0.1,0.15,0.2,0.015848931924611127,1,0.2840439410028921
78,827,Constant_null,0.1,0.1,0.1,0.050118723362727206,1,0.29048726100154454
78,828,FarLowWide,0.03,0.25,0.5,0.01995262314968879,0,0.28834102600012557
78,829,FarHighWide,0.5,0.25,0.03,0.012589254117941668,1,0.6946358469976985
78,830,Constant,0.1,0.1,0.1,0.01995262314968879,1,0.48475230999974883
78,831,FarHighWide,0.5,0.25,0.03,0.009999999999999997,1,0.24314492700068513
78,832,Constant,0.1,0.1,0.1,0.015848931924611127,1,0.3378813179988356
78,833,FarLowNarrow,0.1,0.15,0.2,0.012589254117941666,1,0.23120883100273204
78,834,ThreeLinesControl,0.0,0.0,0.1,0.009999999999999995,0,0.8420737790002022
78,835,FarLowNarrow,0.1,0.15,0.2,0.009999999999999995,0,0.2083195679988421
78,836,FarHighWide_null,0.5,0.25,0.03,0.07943282347242815,1,0.25174586299908697
78,837,FarHighNarrow,0.2,0.15,0.1,0.015848931924611127,0,0.2893454160002875
78,838,FarHighWide,0.5,0.25,0.03,0.007943282347242812,0,0.23175590499886312
78,839,FarHighNarrow,0.2,0.15,0.1,0.01995262314968879,1,0.5080254690001311
78,840,FarLowNarrow,0.1,0.15,0.2,0.012589254117941666,0,0.4949304649999249
78,841,Constant,0.1,0.1,0.1,0.012589254117941666,0,0.19632591100162244
78,842,FarHighNarrow,0.2,0.15,0.1,0.015848931924611127,0,0.16296829400016577
78,843,FarLowNarrow,0.1,0.15,0.2,0.015848931924611127,0,0.1847295009974914
78,844,FarHighNarrow,0.2,0.15,0.1,0.01995262314968879,1,0.2152415269993071
78,845,Constant,0.1,0.1,0.1,0.015848931924611127,1,0.18233123399841134
78,846,FarLowWide,0.03,0.25,0.5,0.025118864315095794,1,0.21040472000095178
78,847,FarHighNarrow,0.2,0.15,0.1,0.015848931924611127,1,0.20077309599946602
78,848,FarHighWide,0.5,0.25,0.03,0.009999999999999997,1,0.19838025299759465
78,849,FarLowNarrow,0.1,0.15,0.2,0.01995262314968879,0,99
78,850,FarHighWide,0.5,0.25,0.03,0.007943282347242812,0,99
78,851,Constant,0.1,0.1,0.1,0.012589254117941666,0,0.3412498809993849
78,852,FarHighWide_null,0.5,0.25,0.03,0.06309573444801932,1,0.28932428900225204
78,853,FarHighWide_null,0.5,0.25,0.03,0.05011872336272722,1,0.43008736499905353
78,854,FarLowNarrow,0.1,0.15,0.2,0.025118864315095794,0,99
78,855,Constant,0.1,0.1,0.1,0.015848931924611127,0,0.41770356699998956
78,856,Constant,0.1,0.1,0.1,0.01995262314968879,1,0.3519093180002528
78,857,FarLowWide,0.03,0.25,0.5,0.01995262314968879,0,99
78,858,Constant,0.1,0.1,0.1,0.015848931924611127,0,99
78,859,Constant,0.1,0.1,0.1,0.01995262314968879,1,0.2985717180017673
78,860,FarLowNarrow,0.1,0.15,0.2,0.031622776601683784,1,0.24848885999745107
78,861,FarHighNarrow,0.2,0.15,0.1,0.012589254117941666,1,0.16752125399943907
78,862,FarLowWide,0.03,0.25,0.5,0.025118864315095794,0,99
78,863,FarLowNarrow,0.1,0.15,0.2,0.02511886431509579,1,0.362136207997537
78,864,FarHighNarrow,0.2,0.15,0.1,0.009999999999999995,0,0.8638877670018701
78,865,Constant,0.1,0.1,0.1,0.015848931924611127,0,0.4034224720016937
78,866,FarHighWide,0.5,0.25,0.03,0.009999999999999997,1,0.29723991499849944
78,867,FarHighWide,0.5,0.25,0.03,0.007943282347242812,1,0.24759510799776763
78,868,FarHighWide,0.5,0.25,0.03,0.006309573444801929,1,0.874821831999725
78,869,Constant_null,0.1,0.1,0.1,0.039810717055349706,1,0.6170017020012892
78,870,FarLowWide_null,0.03,0.25,0.5,0.01995262314968879,1,0.31100354499722016
78,871,FarHighWide,0.5,0.25,0.03,0.00501187233627272,0,0.20415701899764827
78,872,ThreeLinesControl,0.0,0.0,0.1,0.012589254117941666,1,0.17006625000067288
78,873,Constant,0.1,0.1,0.1,0.01995262314968879,1,0.22430888199960464
78,874,FarLowWide,0.03,0.25,0.5,0.031622776601683784,1,0.34179252499961876
78,875,ThreeLinesControl,0.0,0.0,0.1,0.009999999999999995,0,0.419799803999922
78,876,FarLowNarrow,0.1,0.15,0.2,0.01995262314968879,1,0.4111665080017701
78,877,FarHighNarrow,0.2,0.15,0.1,0.012589254117941666,0,0.3293660190029186
78,878,ThreeLinesControl,0.0,0.0,0.1,0.012589254117941666,0,0.44857416300146724
78,879,FarLowWide,0.03,0.25,0.5,0.02511886431509579,1,0.27639169199756
78,880,FarLowWide,0.03,0.25,0.5,0.01995262314968879,0,0.22452938499918673
78,881,FarLowWide,0.03,0.25,0.5,0.025118864315095794,0,0.39067119999890565
78,882,FarLowWide,0.03,0.25,0.5,0.031622776601683784,1,0.44142562200067914
78,883,Constant_null,0.1,0.1,0.1,0.03162277660168378,1,0.3201558200016734
78,884,FarLowWide,0.03,0.25,0.5,0.02511886431509579,1,0.49070944900086033
78,885,FarHighNarrow,0.2,0.15,0.1,0.015848931924611127,1,0.30529492999994545
78,886,FarLowWide,0.03,0.25,0.5,0.01995262314968879,0,99
78,887,Constant,0.1,0.1,0.1,0.015848931924611127,1,0.6127527980024752
78,888,FarHighWide,0.5,0.25,0.03,0.006309573444801929,0,0.45868061799774296
78,889,Constant,0.1,0.1,0.1,0.012589254117941666,1,0.5212279609986581
78,890,FarHighWide,0.5,0.25,0.03,0.007943282347242812,0,0.35919260299851885
78,891,FarLowWide,0.03,0.25,0.5,0.025118864315095794,0,0.3331156070016732
78,892,Constant,0.1,0.1,0.1,0.009999999999999995,0,0.6034969579995959
78,893,FarHighWide,0.5,0.25,0.03,0.009999999999999997,0,0.4416014449998329
78,894,FarLowNarrow_null,0.1,0.15,0.2,0.07943282347242812,1,0.38474421999853803
78,895,Constant,0.1,0.1,0.1,0.012589254117941666,1,0.3407210719997238
78,896,FarHighNarrow,0.2,0.15,0.1,0.012589254117941666,1,0.337829240001156
78,897,FarLowNarrow,0.1,0.15,0.2,0.015848931924611127,1,0.4959970099989732
78,898,Constant,0.1,0.1,0.1,0.009999999999999995,1,0.9082762030011509
78,899,ThreeLinesControl,0.0,0.0,0.1,0.015848931924611127,0,0.3772006910003256
78,900,Constant_null,0.1,0.1,0.1,0.025118864315095787,1,0.2681908710001153
78,901,ThreeLinesControl,0.0,0.0,0.1,0.01995262314968879,0,0.7787982660011039
78,902,FarHighWide,0.5,0.25,0.03,0.012589254117941668,1,0.3045223579974845
78,903,Constant,0.1,0.1,0.1,0.00794328234724281,1,0.5509309020017099
78,904,ThreeLinesControl,0.0,0.0,0.1,0.025118864315095794,1,0.2131833790008386
78,905,Constant,0.1,0.1,0.1,0.0063095734448019285,0,0.25922893499955535
78,906,Constant,0.1,0.1,0.1,0.00794328234724281,0,0.2560842730017612
78,907,FarHighNarrow,0.2,0.15,0.1,0.009999999999999995,0,0.4705542299998342
78,908,Constant,0.1,0.1,0.1,0.009999999999999995,0,0.23656019200279843
78,909,FarHighNarrow,0.2,0.15,0.1,0.012589254117941666,0,99
78,910,FarLowNarrow,0.1,0.15,0.2,0.012589254117941666,0,0.25801488300203346
78,911,FarLowWide,0.03,0.25,0.5,0.031622776601683784,1,0.40510072100005345
78,912,FarLowWide,0.03,0.25,0.5,0.02511886431509579,1,0.17906197200136376
78,913,FarHighNarrow,0.2,0.15,0.1,0.015848931924611127,0,0.2972905310016358
78,914,ThreeLinesControl,0.0,0.0,0.1,0.01995262314968879,1,0.6127923620006186
78,915,FarLowWide,0.03,0.25,0.5,0.01995262314968879,0,0.2668570499990892
78,916,FarHighNarrow,0.2,0.15,0.1,0.01995262314968879,1,0.27292458999727387
78,917,FarHighWide,0.5,0.25,0.03,0.009999999999999997,0,0.4279979959974298
78,918,FarLowWide_null,0.03,0.25,0.5,0.015848931924611127,0,0.2819822000019485
78,919,FarHighWide_null,0.5,0.25,0.03,0.03981071705534971,0,0.4964405379978416
78,920,ThreeLinesControl,0.0,0.0,0.1,0.015848931924611127,1,0.7184568110023974
78,921,FarHighWide,0.5,0.25,0.03,0.012589254117941668,0,0.31588002200078336
78,922,FarLowNarrow,0.1,0.15,0.2,0.015848931924611127,1,0.29775540999980876
78,923,FarLowNarrow,0.1,0.15,0.2,0.012589254117941666,0,0.36784740399889415
78,924,FarHighWide,0.5,0.25,0.03,0.01584893192461113,1,0.3976641910012404
78,925,FarHighNarrow,0.2,0.15,0.1,0.015848931924611127,0,99
78,926,FarLowWide_null,0.03,0.25,0.5,0.01995262314968879,0,0.3156542630022159
78,927,Constant,0.1,0.1,0.1,0.012589254117941666,0,0.5936761519988067
78,928,FarHighWide,0.5,0.25,0.03,0.012589254117941668,1,0.5896299799969711
78,929,ThreeLinesControl,0.0,0.0,0.1,0.012589254117941666,0,0.3559287790012604
78,930,Constant_null,0.1,0.1,0.1,0.019952623149688785,1,0.6230182409999543
78,931,ThreeLinesControl,0.0,0.0,0.1,0.015848931924611127,1,0.44406059399989317
78,932,FarLowWide_null,0.03,0.25,0.5,0.025118864315095794,0,99
78,933,ThreeLinesControl,0.0,0.0,0.1,0.012589254117941666,0,0.43057832600243273
78,934,FarLowWide,0.03,0.25,0.5,0.025118864315095794,1,0.40441243900204427
78,935,FarHighWide,0.5,0.25,0.03,0.009999999999999997,0,0.2977002320003521
78,936,FarHighWide,0.5,0.25,0.03,0.012589254117941668,1,0.8478418860031525
78,937,Constant,0.1,0.1,0.1,0.015848931924611127,1,0.5179133780002303
78,938,FarHighWide,0.5,0.25,0.03,0.009999999999999997,0,0.7471692030012491
78,939,FarLowWide,0.03,0.25,0.5,0.01995262314968879,0,0.39348036700175726
78,940,FarHighNarrow,0.2,0.15,0.1,0.01995262314968879,1,0.503321557000163
78,941,FarLowNarrow,0.1,0.15,0.2,0.015848931924611127,0,0.333916360999865
78,942,FarLowWide,0.03,0.25,0.5,0.025118864315095794,1,0.5245958779996727
78,943,FarLowWide,0.03,0.25,0.5,0.01995262314968879,0,99
78,944,FarLowNarrow,0.1,0.15,0.2,0.01995262314968879,0,99
78,945,Constant,0.1,0.1,0.1,0.012589254117941666,0,99
78,946,Constant_null,0.1,0.1,0.1,0.015848931924611124,1,0.3784836049999285
78,947,FarLowNarrow,0.1,0.15,0.2,0.025118864315095794,1,0.3166763949993765
78,948,FarHighWide,0.5,0.25,0.03,0.012589254117941668,1,0.4356727859994862
78,949,FarHighNarrow,0.2,0.15,0.1,0.015848931924611127,1,0.7349226170008478
78,950,ThreeLinesControl,0.0,0.0,0.1,0.015848931924611127,1,0.5249928039993392
78,951,FarLowNarrow,0.1,0.15,0.2,0.01995262314968879,1,0.6272637269976258
78,952,ThreeLinesControl,0.0,0.0,0.1,0.012589254117941666,1,0.47223634100009804
78,953,FarLowWide,0.03,0.25,0.5,0.025118864315095794,1,0.3982305709978391
78,954,FarLowWide,0.03,0.25,0.5,0.01995262314968879,1,0.49260708400106523
78,955,Constant,0.1,0.1,0.1,0.015848931924611127,1,0.41866913299963926
78,956,ThreeLinesControl_null,0.0,0.0,0.1,0.009999999999999995,0,0.7609184629982337
78,957,FarLowWide,0.03,0.25,0.5,0.015848931924611127,1,0.3496703710006841
78,958,FarHighWide,0.5,0.25,0.03,0.009999999999999997,1,0.4051015479999478
78,959,FarHighNarrow,0.2,0.15,0.1,0.012589254117941666,1,0.4111829809990013
78,960,FarHighNarrow,0.2,0.15,0.1,0.009999999999999995,0,0.5853187450011319
78,961,ThreeLinesControl,0.0,0.0,0.1,0.009999999999999995,0,0.2546973309981695
78,962,ThreeLinesControl_null,0.0,0.0,0.1,0.012589254117941666,1,0.21959346500079846
78,963,FarLowWide,0.03,0.25,0.5,0.012589254117941666,0,0.23383321100118337
78,964,Constant,0.1,0.1,0.1,0.012589254117941666,0,0.2158383469977707
78,965,FarHighNarrow,0.2,0.15,0.1,0.012589254117941666,0,0.22098654199726298
78,966,FarHighNarrow,0.2,0.15,0.1,0.015848931924611127,0,0.1870225480015506
78,967,FarLowNarrow,0.1,0.15,0.2,0.015848931924611127,0,0.1691038640019542
78,968,FarHighNarrow,0.2,0.15,0.1,0.01995262314968879,0,99
78,969,FarHighNarrow,0.2,0.15,0.1,0.025118864315095794,0,0.24555626900109928
78,970,Constant_null,0.1,0.1,0.1,0.012589254117941663,1,0.419929895997484
78,971,ThreeLinesControl,0.0,0.0,0.1,0.012589254117941666,0,0.25705790600113687
78,972,ThreeLinesControl,0.0,0.0,0.1,0.015848931924611127,1,0.4149960340000689
78,973,FarLowNarrow,0.1,0.15,0.2,0.01995262314968879,1,0.1942722749990935
78,974,Constant,0.1,0.1,0.1,0.015848931924611127,1,0.2482872269974905
78,975,FarLowNarrow,0.1,0.15,0.2,0.015848931924611127,1,0.17469790799805196
78,976,FarLowWide,0.03,0.25,0.5,0.015848931924611127,1,0.40981378099968424
78,977,FarLowWide,0.03,0.25,0.5,0.012589254117941666,0,99
78,978,FarHighNarrow,0.2,0.15,0.1,0.031622776601683784,1,0.34997931299949414
78,979,FarLowNarrow_null,0.1,0.15,0.2,0.0630957344480193,1,0.2743231059976097
78,980,Constant_null,0.1,0.1,0.1,0.009999999999999992,0,0.33608674000061
78,981,FarLowNarrow,0.1,0.15,0.2,0.012589254117941666,0,0.4381857760017738
78,982,FarHighNarrow,0.2,0.15,0.1,0.02511886431509579,1,0.4438183480015141
78,983,FarHighWide,0.5,0.25,0.03,0.007943282347242812,1,0.30565929200020037
78,984,Constant,0.1,0.1,0.1,0.012589254117941666,0,0.28801522700086934
78,985,FarHighWide,0.5,0.25,0.03,0.006309573444801929,0,0.5980843700017431
78,986,FarLowWide_null,0.03,0.25,0.5,0.031622776601683784,1,0.47723911499997484
78,987,FarHighNarrow,0.2,0.15,0.1,0.01995262314968879,1,0.3214803779992508
78,988,FarHighNarrow,0.2,0.15,0.1,0.015848931924611127,1,0.4235159609997936
78,989,FarLowWide,0.03,0.25,0.5,0.015848931924611127,1,0.3703878269989218
78,990,FarHighNarrow,0.2,0.15,0.1,0.012589254117941666,0,0.4407220090033661
78,991,FarLowNarrow_null,0.1,0.15,0.2,0.050118723362727206,1,0.407001488001697
78,992,FarHighWide,0.5,0.25,0.03,0.007943282347242812,1,0.3141035529988585
78,993,FarLowWide,0.03,0.25,0.5,0.012589254117941666,0,99
78,994,FarHighNarrow,0.2,0.15,0.1,0.015848931924611127,1,0.3101394059995073
78,995,ThreeLinesControl,0.0,0.0,0.1,0.012589254117941666,0,0.5386730719983461
78,996,FarLowNarrow,0.1,0.15,0.2,0.015848931924611127,1,0.23939537800106336
78,997,FarLowWide,0.03,0.25,0.5,0.015848931924611127,0,0.20563593599945307
78,998,FarHighNarrow,0.2,0.15,0.1,0.012589254117941666,1,0.30063958800019464
78,999,FarLowNarrow,0.1,0.15,0.2,0.012589254117941666,0,0.44203638099861564
78,1000,FarHighNarrow,0.2,0.15,0.1,0.009999999999999995,1,0.46588909099955345
78,1001,FarLowNarrow_null,0.1,0.15,0.2,0.039810717055349706,1,0.34220030900178244
78,1002,ThreeLinesControl,0.0,0.0,0.1,0.015848931924611127,0,0.4044042569985322
78,1003,Constant_null,0.1,0.1,0.1,0.012589254117941663,1,0.4816928589971212
78,1004,FarLowNarrow_null,0.1,0.15,0.2,0.03162277660168378,1,0.3027896140010853
78,1005,FarLowWide,0.03,0.25,0.5,0.01995262314968879,0,0.3738189040013822
78,1006,Constant,0.1,0.1,0.1,0.015848931924611127,0,0.36136955999973
78,1007,FarHighNarrow,0.2,0.15,0.1,0.00794328234724281,1,0.2233471740000823
78,1008,FarLowNarrow_null,0.1,0.15,0.2,0.025118864315095787,1,0.24239654399934807
78,1009,FarLowWide,0.03,0.25,0.5,0.025118864315095794,1,0.3288776349982072
78,1010,FarHighNarrow,0.2,0.15,0.1,0.0063095734448019285,0,0.43074613900171244
78,1011,FarHighNarrow_null,0.2,0.15,0.1,0.06309573444801932,1,0.27504309299911256
78,1012,ThreeLinesControl,0.0,0.0,0.1,0.01995262314968879,0,0.48105891500017606
78,1013,Constant,0.1,0.1,0.1,0.01995262314968879,1,0.39103787899875897
78,1014,FarHighNarrow,0.2,0.15,0.1,0.00794328234724281,0,0.5652696680008376
78,1015,FarHighWide,0.5,0.25,0.03,0.006309573444801929,0,0.4916906939979526
78,1016,ThreeLinesControl,0.0,0.0,0.1,0.025118864315095794,1,0.5298826520011062
78,1017,FarLowWide,0.03,0.25,0.5,0.01995262314968879,0,0.2956731439990108
78,1018,Constant,0.1,0.1,0.1,0.015848931924611127,0,0.31935152299774927
78,1019,FarLowNarrow,0.1,0.15,0.2,0.015848931924611127,1,0.3310555000025488
78,1020,FarLowNarrow,0.1,0.15,0.2,0.012589254117941666,1,0.31328428800043184
78,1021,FarHighWide,0.5,0.25,0.03,0.007943282347242812,1,0.36735931299699587
78,1022,Constant,0.1,0.1,0.1,0.01995262314968879,1,0.250612985000771
78,1023,ThreeLinesControl,0.0,0.0,0.1,0.01995262314968879,0,0.5927546120001352
78,1024,FarHighWide,0.5,0.25,0.03,0.006309573444801929,1,0.29404924900154583
78,1025,ThreeLinesControl,0.0,0.0,0.1,0.025118864315095794,1,0.2494244460031041
78,1026,FarHighNarrow,0.2,0.15,0.1,0.009999999999999995,0,0.4389076049992582
78,1027,FarLowNarrow,0.1,0.15,0.2,0.009999999999999995,0,0.2839465580000251
78,1028,FarHighWide,0.5,0.25,0.03,0.00501187233627272,1,0.2903310660003626
78,1029,FarLowWide,0.03,0.25,0.5,0.025118864315095794,0,0.28848369600018486
78,1030,FarLowWide,0.03,0.25,0.5,0.031622776601683784,0,0.462724528999388
78,1031,Constant,0.1,0.1,0.1,0.015848931924611127,1,0.32513359100266825
78,1032,FarHighNarrow_null,0.2,0.15,0.1,0.05011872336272722,1,0.37907094700130983
78,1033,FarLowNarrow,0.1,0.15,0.2,0.012589254117941666,1,1.065410573999543
78,1034,ThreeLinesControl_null,0.0,0.0,0.1,0.009999999999999995,1,0.43152761199962697
78,1035,FarHighWide,0.5,0.25,0.03,0.00398107170553497,1,0.34043027799998526
78,1036,FarLowNarrow,0.1,0.15,0.2,0.009999999999999995,0,0.31451007700161426
78,1037,FarLowNarrow,0.1,0.15,0.2,0.012589254117941666,0,0.3370076989995141
78,1038,FarHighWide,0.5,0.25,0.03,0.0031622776601683772,0,0.2760706580011174
78,1039,FarHighNarrow,0.2,0.15,0.1,0.012589254117941666,0,0.32886522300032084
78,1040,FarHighNarrow_null,0.2,0.15,0.1,0.03981071705534971,1,0.36721350099833217
78,1041,Constant,0.1,0.1,0.1,0.012589254117941666,0,0.23405332499896758
78,1042,FarLowNarrow,0.1,0.15,0.2,0.015848931924611127,0,0.21649759900174104
78,1043,FarHighNarrow,0.2,0.15,0.1,0.015848931924611127,0,0.3748608950008929
78,1044,ThreeLinesControl,0.0,0.0,0.1,0.01995262314968879,0,0.3078886840012274
78,1045,FarLowNarrow,0.1,0.15,0.2,0.01995262314968879,1,0.2741661349973583
78,1046,FarLowWide_null,0.03,0.25,0.5,0.02511886431509579,1,0.248273697001423
78,1047,FarLowNarrow,0.1,0.15,0.2,0.015848931924611127,0,0.1980775949996314
78,1048,FarLowWide,0.03,0.25,0.5,0.03981071705534971,0,0.14045635200091056
78,1049,Constant,0.1,0.1,0.1,0.015848931924611127,1,0.218647935998888
78,1050,FarHighWide,0.5,0.25,0.03,0.00398107170553497,1,0.24171547299920348
78,1051,FarHighWide,0.5,0.25,0.03,0.0031622776601683772,1,0.22414079399823095
78,1052,FarHighNarrow,0.2,0.15,0.1,0.01995262314968879,0,0.32321940600013477
78,1053,Constant,0.1,0.1,0.1,0.012589254117941666,1,0.33699989200249547
78,1054,Constant,0.1,0.1,0.1,0.009999999999999995,1,0.4682493880027323
78,1055,FarLowNarrow,0.1,0.15,0.2,0.01995262314968879,1,0.27452387300218106
78,1056,ThreeLinesControl,0.0,0.0,0.1,0.025118864315095794,1,0.31237504399905447
78,1057,ThreeLinesControl,0.0,0.0,0.1,0.01995262314968879,1,0.30788350500006345
78,1058,FarHighNarrow,0.2,0.15,0.1,0.025118864315095794,1,0.20990764199814294
78,1059,ThreeLinesControl,0.0,0.0,0.1,0.015848931924611127,1,0.26429683600144926
78,1060,FarLowWide_null,0.03,0.25,0.5,0.01995262314968879,0,0.1969696899977862
78,1061,ThreeLinesControl,0.0,0.0,0.1,0.012589254117941666,0,0.35533478900106275
78,1062,FarHighNarrow,0.2,0.15,0.1,0.01995262314968879,1,0.5054222969993134
78,1063,FarLowNarrow,0.1,0.15,0.2,0.015848931924611127,1,0.46373459200185607
78,1064,FarHighNarrow,0.2,0.15,0.1,0.015848931924611127,1,0.38202615399859496
78,1065,FarLowNarrow,0.1,0.15,0.2,0.012589254117941666,1,0.3564496920007514
78,1066,FarLowWide,0.03,0.25,0.5,0.05011872336272721,1,0.19430931600072654
78,1067,ThreeLinesControl,0.0,0.0,0.1,0.015848931924611127,1,0.2093564780007
78,1068,FarHighNarrow,0.2,0.15,0.1,0.012589254117941666,1,0.1572440709969669
78,1069,Constant,0.1,0.1,0.1,0.00794328234724281,0,0.6437313470014487
78,1070,FarLowWide,0.03,0.25,0.5,0.03981071705534971,1,0.32962938900163863
78,1071,FarHighWide,0.5,0.25,0.03,0.002511886431509578,0,0.7160542999990867
78,1072,FarHighWide,0.5,0.25,0.03,0.0031622776601683772,0,99
78,1073,FarHighNarrow_null,0.2,0.15,0.1,0.031622776601683784,1,0.492867077999108
78,1074,ThreeLinesControl,0.0,0.0,0.1,0.012589254117941666,0,0.36318002800180693
78,1075,ThreeLinesControl,0.0,0.0,0.1,0.015848931924611127,0,0.2975060119970294
78,1076,FarLowWide_null,0.03,0.25,0.5,0.025118864315095794,1,0.24833618699994986
78,1077,Constant,0.1,0.1,0.1,0.009999999999999995,0,0.2778506499998912
78,1078,FarLowWide,0.03,0.25,0.5,0.031622776601683784,1,0.33074521900198306
78,1079,Constant,0.1,0.1,0.1,0.012589254117941666,0,0.4342259199984255
78,1080,FarHighNarrow,0.2,0.15,0.1,0.009999999999999995,0,0.378296800001408
78,1081,FarLowWide,0.03,0.25,0.5,0.02511886431509579,0,0.21449111299807555
78,1082,FarHighNarrow,0.2,0.15,0.1,0.012589254117941666,0,0.1958256239995535
78,1083,FarLowNarrow,0.1,0.15,0.2,0.009999999999999995,0,0.1858168469989323
78,1084,FarHighNarrow,0.2,0.15,0.1,0.015848931924611127,0,0.19998129600207903
78,1085,Constant,0.1,0.1,0.1,0.015848931924611127,0,99
78,1086,FarHighNarrow,0.2,0.15,0.1,0.01995262314968879,1,0.23627872499855584
78,1087,FarLowWide,0.03,0.25,0.5,0.031622776601683784,0,99
78,1088,Constant,0.1,0.1,0.1,0.01995262314968879,1,0.5444344360003015
78,1089,ThreeLinesControl,0.0,0.0,0.1,0.01995262314968879,1,0.37455019900153275
78,1090,ThreeLinesControl_null,0.0,0.0,0.1,0.00794328234724281,0,0.22121818400046322
78,1091,FarLowNarrow_null,0.1,0.15,0.2,0.019952623149688785,1,0.3714065390013275
78,1092,FarHighNarrow,0.2,0.15,0.1,0.015848931924611127,1,0.3190038180000556
78,1093,FarLowNarrow,0.1,0.15,0.2,0.012589254117941666,0,0.3403093529996113
78,1094,FarLowNarrow,0.1,0.15,0.2,0.015848931924611127,1,0.35499733299729996
78,1095,FarLowWide,0.03,0.25,0.5,0.03981071705534971,1,0.40574748200015165
78,1096,FarLowWide,0.03,0.25,0.5,0.031622776601683784,1,0.33176865499990527
78,1097,Constant,0.1,0.1,0.1,0.015848931924611127,1,0.27408124200155726
78,1098,Constant,0.1,0.1,0.1,0.012589254117941666,1,0.20482541200181004
78,1099,FarHighNarrow,0.2,0.15,0.1,0.012589254117941666,1,0.3632962140000018
78,1100,ThreeLinesControl_null,0.0,0.0,0.1,0.009999999999999995,1,0.5135389649985882
78,1101,ThreeLinesControl,0.0,0.0,0.1,0.015848931924611127,0,0.4474559779991978
78,1102,FarLowWide,0.03,0.25,0.5,0.02511886431509579,1,1.1018620659997396
78,1103,FarHighWide,0.5,0.25,0.03,0.00398107170553497,1,0.41998471599799814
78,1104,FarHighNarrow,0.2,0.15,0.1,0.009999999999999995,0,0.2740252829971723
78,1105,Constant,0.1,0.1,0.1,0.009999999999999995,0,0.3111662239971338
78,1106,FarLowWide,0.03,0.25,0.5,0.01995262314968879,0,0.22150148899891065
78,1107,FarHighWide,0.5,0.25,0.03,0.0031622776601683772,1,0.40497090099961497
78,1108,FarHighWide,0.5,0.25,0.03,0.002511886431509578,0,0.4597597739993944
78,1109,FarHighNarrow,0.2,0.15,0.1,0.012589254117941666,0,0.6047975789988413
78,1110,FarHighNarrow,0.2,0.15,0.1,0.015848931924611127,1,0.32290694499897654
78,1111,Constant,0.1,0.1,0.1,0.012589254117941666,1,0.20607679500244558
78,1112,Constant,0.1,0.1,0.1,0.009999999999999995,0,0.29137489999993704
78,1113,FarLowNarrow,0.1,0.15,0.2,0.012589254117941666,0,0.29723793100129114
78,1114,FarHighNarrow,0.2,0.15,0.1,0.012589254117941666,0,0.22961254099936923
78,1115,FarHighWide,0.5,0.25,0.03,0.0031622776601683772,0,0.36407160499948077
78,1116,FarHighNarrow,0.2,0.15,0.1,0.015848931924611127,0,0.28981819199907477
78,1117,FarHighWide,0.5,0.25,0.03,0.00398107170553497,0,99
78,1118,ThreeLinesControl,0.0,0.0,0.1,0.01995262314968879,0,0.7010287040029652
78,1119,ThreeLinesControl,0.0,0.0,0.1,0.025118864315095794,1,0.6273762400014675
78,1120,FarLowNarrow,0.1,0.15,0.2,0.015848931924611127,1,0.521468751001521
78,1121,ThreeLinesControl,0.0,0.0,0.1,0.01995262314968879,0,0.29532070900313556
78,1122,FarLowWide,0.03,0.25,0.5,0.025118864315095794,1,0.4140353629991296
78,1123,FarHighWide,0.5,0.25,0.03,0.00501187233627272,1,0.4202077120025933
78,1124,FarLowNarrow,0.1,0.15,0.2,0.012589254117941666,1,0.3795243409986142
78,1125,FarHighWide,0.5,0.25,0.03,0.00398107170553497,0,0.3181544670005678
78,1126,FarLowNarrow,0.1,0.15,0.2,0.009999999999999995,0,0.356211551999877
78,1127,ThreeLinesControl,0.0,0.0,0.1,0.025118864315095794,1,0.7115579199999047
78,1128,FarHighWide,0.5,0.25,0.03,0.00501187233627272,1,0.7974443059974874
78,1129,FarHighWide,0.5,0.25,0.03,0.00398107170553497,1,0.5238781449988892
78,1130,Constant,0.1,0.1,0.1,0.012589254117941666,0,0.36797702300100354
78,1131,FarHighNarrow,0.2,0.15,0.1,0.01995262314968879,1,0.5322369859968603
78,1132,FarHighNarrow,0.2,0.15,0.1,0.015848931924611127,1,0.7633263859970612
78,1133,Constant,0.1,0.1,0.1,0.015848931924611127,1,0.5052775120020669
78,1134,FarHighWide,0.5,0.25,0.03,0.0031622776601683772,1,0.5743100629988476
78,1135,FarLowWide,0.03,0.25,0.5,0.01995262314968879,0,0.34823853099806
78,1136,FarHighNarrow,0.2,0.15,0.1,0.012589254117941666,0,99
78,1137,FarHighNarrow,0.2,0.15,0.1,0.015848931924611127,1,0.4571920639973541
78,1138,FarLowNarrow,0.1,0.15,0.2,0.012589254117941666,0,0.4396267299998726
78,1139,FarLowNarrow,0.1,0.15,0.2,0.015848931924611127,0,0.5011366930011718
78,1140,FarLowWide,0.03,0.25,0.5,0.025118864315095794,1,0.40361235499949544
78,1141,FarHighNarrow,0.2,0.15,0.1,0.012589254117941666,0,0.24633903599897167
78,1142,FarLowWide,0.03,0.25,0.5,0.01995262314968879,0,0.6367037279997021
78,1143,FarLowWide,0.03,0.25,0.5,0.025118864315095794,0,0.27519306099929963
78,1144,FarLowNarrow,0.1,0.15,0.2,0.01995262314968879,0,0.37397261800288106
78,1145,FarLowNarrow_null,0.1,0.15,0.2,0.015848931924611124,1,0.33222757000112324
78,1146,FarLowNarrow,0.1,0.15,0.2,0.025118864315095794,0,0.27249751000272227
78,1147,ThreeLinesControl,0.0,0.0,0.1,0.01995262314968879,0,0.6707134730022517
78,1148,Constant,0.1,0.1,0.1,0.012589254117941666,1,0.42053115300223
78,1149,ThreeLinesControl_null,0.0,0.0,0.1,0.00794328234724281,1,0.6177703180001117
78,1150,FarHighNarrow,0.2,0.15,0.1,0.015848931924611127,1,0.3915995900024427
78,1151,FarHighNarrow,0.2,0.15,0.1,0.012589254117941666,0,99
78,1152,ThreeLinesControl,0.0,0.0,0.1,0.025118864315095794,0,99
78,1153,Constant,0.1,0.1,0.1,0.009999999999999995,0,0.3075811739981873
78,1154,Constant,0.1,0.1,0.1,0.012589254117941666,0,0.5853797620002297
78,1155,ThreeLinesControl_null,0.0,0.0,0.1,0.0063095734448019285,0,0.4400614040023356
78,1156,ThreeLinesControl,0.0,0.0,0.1,0.031622776601683784,1,0.4055426909981179
78,1157,Constant,0.1,0.1,0.1,0.015848931924611127,0,0.312952440999652
78,1158,Constant,0.1,0.1,0.1,0.01995262314968879,1,0.37514915900101187
78,1159,Constant,0.1,0.1,0.1,0.015848931924611127,1,0.484038981001504
78,1160,ThreeLinesControl,0.0,0.0,0.1,0.02511886431509579,1,0.3510676119985874
78,1161,Constant,0.1,0.1,0.1,0.012589254117941666,0,0.3256600439999602
78,1162,Constant,0.1,0.1,0.1,0.015848931924611127,0,0.2997178260011424
78,1163,Constant,0.1,0.1,0.1,0.01995262314968879,1,0.2795434389990987
78,1164,Constant,0.1,0.1,0.1,0.015848931924611127,0,0.3256531909974001
78,1165,Constant,0.1,0.1,0.1,0.01995262314968879,0,0.3241151460024412
78,1166,Constant,0.1,0.1,0.1,0.025118864315095794,1,0.28911086000152864
78,1167,ThreeLinesControl,0.0,0.0,0.1,0.01995262314968879,0,0.31027283299772535
78,1168,FarLowNarrow,0.1,0.15,0.2,0.031622776601683784,0,99
78,1169,Constant,0.1,0.1,0.1,0.01995262314968879,1,0.36391440000079456
78,1170,Constant,0.1,0.1,0.1,0.015848931924611127,1,0.40194368200172903
78,1171,ThreeLinesControl,0.0,0.0,0.1,0.025118864315095794,0,0.3097849160003534
78,1172,FarLowWide_null,0.03,0.25,0.5,0.01995262314968879,0,0.34005229299873463
78,1173,ThreeLinesControl,0.0,0.0,0.1,0.031622776601683784,1,0.28717536900148843
78,1174,FarLowNarrow,0.1,0.15,0.2,0.03981071705534971,1,0.2612829749996308
78,1175,FarLowNarrow,0.1,0.15,0.2,0.031622776601683784,1,0.243780931999936
78,1176,FarLowNarrow,0.1,0.15,0.2,0.02511886431509579,1,0.3907970930013107
78,1177,Constant,0.1,0.1,0.1,0.012589254117941666,0,0.7570758900001238
78,1178,Constant,0.1,0.1,0.1,0.015848931924611127,1,0.3631019029999152
78,1179,Constant,0.1,0.1,0.1,0.012589254117941666,0,0.3192273720014782
78,1180,FarLowNarrow,0.1,0.15,0.2,0.01995262314968879,1,0.6537128550007765
78,1181,ThreeLinesControl,0.0,0.0,0.1,0.02511886431509579,1,0.3315711459981685
78,1182,FarLowNarrow_null,0.1,0.15,0.2,0.012589254117941663,0,99
78,1183,ThreeLinesControl,0.0,0.0,0.1,0.01995262314968879,1,0.36782166800185223
78,1184,ThreeLinesControl,0.0,0.0,0.1,0.015848931924611127,0,0.4376327779973508
78,1185,FarLowNarrow,0.1,0.15,0.2,0.015848931924611127,1,0.4056697060004808
78,1186,ThreeLinesControl,0.0,0.0,0.1,0.01995262314968879,0,0.35528620799959754
78,1187,ThreeLinesControl,0.0,0.0,0.1,0.025118864315095794,0,0.2637307100012549
78,1188,FarLowNarrow,0.1,0.15,0.2,0.012589254117941666,1,0.4137087640010577
78,1189,ThreeLinesControl,0.0,0.0,0.1,0.031622776601683784,1,0.3716514150000876
78,1190,FarLowNarrow,0.1,0.15,0.2,0.009999999999999995,0,0.3830301050002163
78,1191,FarLowNarrow,0.1,0.15,0.2,0.012589254117941666,0,0.2925723480002489
78,1192,ThreeLinesControl,0.0,0.0,0.1,0.02511886431509579,1,0.6723187800016603
78,1193,FarLowNarrow,0.1,0.15,0.2,0.015848931924611127,0,0.34214478700232576
78,1194,FarLowNarrow,0.1,0.15,0.2,0.01995262314968879,0,99
78,1195,FarLowNarrow,0.1,0.15,0.2,0.025118864315095794,1,0.3364167939980689
78,1196,ThreeLinesControl_null,0.0,0.0,0.1,0.00794328234724281,1,0.33480574499844806
78,1197,FarLowNarrow_null,0.1,0.15,0.2,0.015848931924611124,1,0.31704544100284693
78,1198,ThreeLinesControl_null,0.0,0.0,0.1,0.0063095734448019285,1,0.2987664210013463
78,1199,ThreeLinesControl_null,0.0,0.0,0.1,0.005011872336272719,1,0.3613794989978487
