Participant_Number,Trial_Number,Condition,FCfar,FCmed,FCclose,Target_Contrast,Correct_Response,Reaction_Time
83,0,FarLowWide,0.03,0.25,0.5,0.1,1,0.7604154630000721
83,1,ThreeLinesControl,0.0,0.0,0.1,0.1,0,99
83,2,FarLowNarrow,0.1,0.15,0.2,0.1,1,0.33873272499999985
83,3,FarHighWide,0.5,0.25,0.03,0.1,1,0.4088661299999785
83,4,FarHighWide,0.5,0.25,0.03,0.07943282347242815,1,0.33211811000001035
83,5,Constant,0.1,0.1,0.1,0.1,1,0.1780786699998771
83,6,FarHighNarrow,0.2,0.15,0.1,0.1,1,0.26443608399995355
83,7,FarLowNarrow,0.1,0.15,0.2,0.07943282347242815,1,0.11638397000001532
83,8,FarLowWide,0.03,0.25,0.5,0.07943282347242815,1,0.16268418399999973
83,9,FarLowNarrow,0.1,0.15,0.2,0.06309573444801932,1,0.12884731299982377
83,10,FarHighWide,0.5,0.25,0.03,0.06309573444801932,1,0.15893187300002865
83,11,ThreeLinesControl_null,0.0,0.0,0.1,0.1,1,0.5000220120000449
83,12,FarHighWide,0.5,0.25,0.03,0.05011872336272722,1,0.38620385500007615
83,13,FarHighNarrow_null,0.2,0.15,0.1,0.1,0,0.31350402199996097
83,14,FarHighWide,0.5,0.25,0.03,0.03981071705534971,1,0.3296357670001271
83,15,ThreeLinesControl,0.0,0.0,0.1,0.1,1,0.3177642040000137
83,16,FarLowNarrow,0.1,0.15,0.2,0.05011872336272722,1,0.20392979200005357
83,17,FarLowNarrow,0.1,0.15,0.2,0.03981071705534971,1,0.2658366759999353
83,18,FarLowNarrow,0.1,0.15,0.2,0.031622776601683784,1,0.13311815800011573
83,19,FarHighWide,0.5,0.25,0.03,0.031622776601683784,1,0.2032464850001361
83,20,FarHighNarrow,0.2,0.15,0.1,0.07943282347242815,1,0.32141653500002576
83,21,FarLowNarrow_null,0.1,0.15,0.2,0.1,0,0.3644142670000292
83,22,Constant,0.1,0.1,0.1,0.07943282347242815,1,0.21081346200003281
83,23,FarHighNarrow_null,0.2,0.15,0.1,0.1,1,0.42381559300019944
83,24,FarLowWide,0.03,0.25,0.5,0.06309573444801932,1,0.14906094700018002
83,25,FarLowWide,0.03,0.25,0.5,0.05011872336272722,1,0.15502638899988597
83,26,Constant,0.1,0.1,0.1,0.06309573444801932,1,0.2489260350000677
83,27,FarLowNarrow,0.1,0.15,0.2,0.02511886431509579,1,0.19930179299990414
83,28,ThreeLinesControl,0.0,0.0,0.1,0.07943282347242815,1,0.1974310969999351
83,29,FarLowNarrow,0.1,0.15,0.2,0.01995262314968879,0,0.371965050999961
83,30,ThreeLinesControl,0.0,0.0,0.1,0.06309573444801932,1,0.13890361499989012
83,31,FarHighWide,0.5,0.25,0.03,0.02511886431509579,1,0.22419502999991892
83,32,ThreeLinesControl,0.0,0.0,0.1,0.05011872336272722,1,0.17407545500009292
83,33,FarHighNarrow_null,0.2,0.15,0.1,0.07943282347242815,0,0.035104633999935686
83,34,FarLowWide,0.03,0.25,0.5,0.03981071705534971,1,0.19949798400011787
83,35,Constant,0.1,0.1,0.1,0.05011872336272722,1,0.24545028600005026
83,36,ThreeLinesControl,0.0,0.0,0.1,0.03981071705534971,1,0.2507965199999944
83,37,FarHighWide,0.5,0.25,0.03,0.01995262314968879,0,0.3338945899999999
83,38,ThreeLinesControl,0.0,0.0,0.1,0.031622776601683784,1,0.43610683899987635
83,39,Constant,0.1,0.1,0.1,0.03981071705534971,1,0.20233358599989515
83,40,Constant,0.1,0.1,0.1,0.031622776601683784,1,0.23131271900001593
83,41,ThreeLinesControl,0.0,0.0,0.1,0.02511886431509579,1,0.18161522800005514
83,42,FarHighWide,0.5,0.25,0.03,0.025118864315095794,1,0.2195386769999459
83,43,FarLowNarrow_null,0.1,0.15,0.2,0.1,1,0.3446741679999832
83,44,Constant,0.1,0.1,0.1,0.02511886431509579,1,0.26386898999999175
83,45,FarLowNarrow,0.1,0.15,0.2,0.025118864315095794,1,0.3494033169999966
83,46,FarHighNarrow,0.2,0.15,0.1,0.06309573444801932,1,0.28448423699978775
83,47,FarLowWide,0.03,0.25,0.5,0.031622776601683784,1,0.2435718449999058
83,48,Constant,0.1,0.1,0.1,0.01995262314968879,1,0.22338638799988075
83,49,FarHighNarrow,0.2,0.15,0.1,0.05011872336272722,1,0.19780107099995803
83,50,Constant,0.1,0.1,0.1,0.015848931924611127,1,0.1288222369998948
83,51,FarHighNarrow,0.2,0.15,0.1,0.03981071705534971,1,0.13510516099995584
83,52,FarHighWide,0.5,0.25,0.03,0.01995262314968879,0,99
83,53,FarHighNarrow,0.2,0.15,0.1,0.031622776601683784,0,99
83,54,FarHighNarrow,0.2,0.15,0.1,0.03981071705534971,1,0.062473805999843535
83,55,FarLowNarrow,0.1,0.15,0.2,0.01995262314968879,1,0.11551862999999685
83,56,FarLowWide,0.03,0.25,0.5,0.02511886431509579,1,0.2016820789999656
83,57,FarHighNarrow,0.2,0.15,0.1,0.031622776601683784,1,0.19089457300015056
83,58,FarHighWide,0.5,0.25,0.03,0.025118864315095794,1,0.2046824540000216
83,59,FarHighWide_null,0.5,0.25,0.03,0.1,1,0.3790882920000058
83,60,FarLowWide,0.03,0.25,0.5,0.01995262314968879,0,0.24940107500015074
83,61,FarHighWide,0.5,0.25,0.03,0.01995262314968879,0,0.2395413220001501
83,62,ThreeLinesControl,0.0,0.0,0.1,0.01995262314968879,0,0.2626627880001706
83,63,FarHighWide,0.5,0.25,0.03,0.025118864315095794,1,0.316880989000083
83,64,Constant_null,0.1,0.1,0.1,0.1,0,0.1938381229999777
83,65,FarLowWide,0.03,0.25,0.5,0.025118864315095794,0,0.1830065320000358
83,66,FarLowWide,0.03,0.25,0.5,0.031622776601683784,1,0.23683197800005473
83,67,Constant,0.1,0.1,0.1,0.012589254117941666,1,0.36840185400001246
83,68,FarLowNarrow,0.1,0.15,0.2,0.015848931924611127,1,0.34231597200005126
83,69,Constant,0.1,0.1,0.1,0.009999999999999995,1,0.37764833699998235
83,70,FarLowNarrow,0.1,0.15,0.2,0.012589254117941666,0,0.4315530859998944
83,71,FarHighNarrow,0.2,0.15,0.1,0.02511886431509579,1,0.5418051840001681
83,72,ThreeLinesControl,0.0,0.0,0.1,0.025118864315095794,1,0.33890276700003596
83,73,FarLowNarrow,0.1,0.15,0.2,0.015848931924611127,1,0.3130968150001081
83,74,FarHighNarrow,0.2,0.15,0.1,0.01995262314968879,0,0.30214318100001947
83,75,ThreeLinesControl,0.0,0.0,0.1,0.01995262314968879,1,0.2526546399999461
83,76,FarHighNarrow,0.2,0.15,0.1,0.025118864315095794,1,0.20269375600014428
83,77,FarLowWide,0.03,0.25,0.5,0.02511886431509579,1,0.1051554059999944
83,78,FarHighWide_null,0.5,0.25,0.03,0.07943282347242815,1,0.09621399799993924
83,79,ThreeLinesControl,0.0,0.0,0.1,0.015848931924611127,0,0.4703628579998167
83,80,Constant,0.1,0.1,0.1,0.00794328234724281,0,0.2180007399999795
83,81,FarHighNarrow,0.2,0.15,0.1,0.01995262314968879,0,0.1432264469999609
83,82,FarHighWide,0.5,0.25,0.03,0.01995262314968879,0,0.2693237920000229
83,83,FarLowWide,0.03,0.25,0.5,0.01995262314968879,0,0.20067613300011544
83,84,Constant,0.1,0.1,0.1,0.009999999999999995,0,0.19871244899991325
83,85,FarHighWide,0.5,0.25,0.03,0.025118864315095794,0,0.3088138200000685
83,86,FarHighWide,0.5,0.25,0.03,0.031622776601683784,1,0.38414697700000033
83,87,Constant,0.1,0.1,0.1,0.012589254117941666,1,0.3343003340000905
83,88,Constant,0.1,0.1,0.1,0.009999999999999995,1,0.260388556999942
83,89,Constant,0.1,0.1,0.1,0.00794328234724281,0,0.20175336699981017
83,90,FarHighWide,0.5,0.25,0.03,0.02511886431509579,0,0.303656318999856
83,91,FarLowWide,0.03,0.25,0.5,0.025118864315095794,0,0.1898572680001962
83,92,FarLowNarrow,0.1,0.15,0.2,0.012589254117941666,0,0.23597040499998911
83,93,FarLowNarrow,0.1,0.15,0.2,0.015848931924611127,0,0.3140180310001597
83,94,ThreeLinesControl,0.0,0.0,0.1,0.01995262314968879,0,0.25648691399965173
83,95,FarHighWide,0.5,0.25,0.03,0.031622776601683784,0,0.25464506600019376
83,96,FarHighNarrow,0.2,0.15,0.1,0.025118864315095794,1,0.25858443600009196
83,97,FarHighNarrow,0.2,0.15,0.1,0.01995262314968879,1,0.1366248029999042
83,98,FarHighNarrow,0.2,0.15,0.1,0.015848931924611127,1,0.17489976200022284
83,99,FarLowNarrow,0.1,0.15,0.2,0.01995262314968879,1,0.19356312600029923
83,100,FarHighWide,0.5,0.25,0.03,0.03981071705534971,0,0.4002010539998082
83,101,FarLowNarrow,0.1,0.15,0.2,0.015848931924611127,1,0.11004401999980473
83,102,FarHighWide,0.5,0.25,0.03,0.05011872336272721,1,0.17736037199983912
83,103,FarHighNarrow,0.2,0.15,0.1,0.012589254117941666,1,0.12752144200021576
83,104,Constant,0.1,0.1,0.1,0.009999999999999995,1,0.0617397340001844
83,105,Constant,0.1,0.1,0.1,0.00794328234724281,1,0.07471721199999592
83,106,FarLowNarrow,0.1,0.15,0.2,0.012589254117941666,1,0.5046701969999958
83,107,FarLowWide,0.03,0.25,0.5,0.031622776601683784,0,0.39907286600009684
83,108,Constant_null,0.1,0.1,0.1,0.1,1,0.4693554519999452
83,109,FarHighWide,0.5,0.25,0.03,0.03981071705534971,1,0.787540603999787
83,110,FarHighWide,0.5,0.25,0.03,0.031622776601683784,1,0.36976373900006365
83,111,FarLowWide,0.03,0.25,0.5,0.03981071705534971,1,0.31289560499999425
83,112,FarLowWide,0.03,0.25,0.5,0.031622776601683784,1,0.20704634499998065
83,113,FarHighNarrow_null,0.2,0.15,0.1,0.1,0,0.12195855399977518
83,114,FarLowNarrow_null,0.1,0.15,0.2,0.07943282347242815,1,0.24908435199995438
83,115,FarLowNarrow,0.1,0.15,0.2,0.009999999999999995,0,0.1553338960002293
83,116,FarLowWide,0.03,0.25,0.5,0.02511886431509579,0,0.16952068999989933
83,117,FarHighWide,0.5,0.25,0.03,0.02511886431509579,1,0.4154025279999587
83,118,FarHighWide,0.5,0.25,0.03,0.01995262314968879,1,0.3467787419999695
83,119,FarLowWide,0.03,0.25,0.5,0.031622776601683784,1,0.016871129000264773
83,120,ThreeLinesControl,0.0,0.0,0.1,0.025118864315095794,1,0.5582423419996303
83,121,FarHighWide,0.5,0.25,0.03,0.015848931924611127,1,0.39629434100015715
83,122,FarHighNarrow,0.2,0.15,0.1,0.009999999999999995,1,0.20920117599962396
83,123,FarHighNarrow_null,0.2,0.15,0.1,0.1,1,0.3014495990000796
83,124,Constant,0.1,0.1,0.1,0.0063095734448019285,0,0.17086244900019665
83,125,FarHighWide,0.5,0.25,0.03,0.012589254117941666,0,0.23977602299964929
83,126,FarHighWide,0.5,0.25,0.03,0.015848931924611127,0,0.2775115580002421
83,127,FarHighNarrow_null,0.2,0.15,0.1,0.07943282347242815,1,0.14680627400002777
83,128,ThreeLinesControl,0.0,0.0,0.1,0.01995262314968879,0,0.33721719999994093
83,129,Constant,0.1,0.1,0.1,0.00794328234724281,0,0.1755593430002591
83,130,FarLowNarrow,0.1,0.15,0.2,0.012589254117941666,0,0.20562488599989592
83,131,Constant,0.1,0.1,0.1,0.009999999999999995,0,0.17862468600014836
83,132,Constant,0.1,0.1,0.1,0.012589254117941666,0,0.18601191700008712
83,133,Constant,0.1,0.1,0.1,0.015848931924611127,0,0.16019492300029015
83,134,FarHighNarrow,0.2,0.15,0.1,0.00794328234724281,0,0.11072249800008649
83,135,FarLowWide,0.03,0.25,0.5,0.02511886431509579,0,0.17104815499988035
83,136,FarHighNarrow,0.2,0.15,0.1,0.009999999999999995,0,0.1354529619998175
83,137,FarLowWide,0.03,0.25,0.5,0.031622776601683784,0,0.13359083899968027
83,138,FarHighWide,0.5,0.25,0.03,0.01995262314968879,0,0.11578930200039395
83,139,FarHighWide,0.5,0.25,0.03,0.025118864315095794,1,0.23089276100017742
83,140,FarLowNarrow,0.1,0.15,0.2,0.015848931924611127,1,0.1571116439999969
83,141,FarLowWide,0.03,0.25,0.5,0.03981071705534971,1,0.48232254799995644
83,142,FarLowNarrow,0.1,0.15,0.2,0.012589254117941666,0,0.27941154999962237
83,143,Constant_null,0.1,0.1,0.1,0.07943282347242815,0,0.35755622199985737
83,144,ThreeLinesControl,0.0,0.0,0.1,0.025118864315095794,0,0.46768543600001067
83,145,FarLowNarrow,0.1,0.15,0.2,0.015848931924611127,1,0.4488710320001701
83,146,FarHighNarrow,0.2,0.15,0.1,0.012589254117941666,1,0.4789302190001763
83,147,ThreeLinesControl_null,0.0,0.0,0.1,0.07943282347242815,1,0.38982681500010585
83,148,FarLowNarrow,0.1,0.15,0.2,0.012589254117941666,0,0.32430121300012615
83,149,FarHighNarrow,0.2,0.15,0.1,0.009999999999999995,1,0.3303600640001605
83,150,FarLowNarrow,0.1,0.15,0.2,0.015848931924611127,0,0.43968667199987976
83,151,Constant,0.1,0.1,0.1,0.01995262314968879,0,0.3427841590000753
83,152,FarHighNarrow,0.2,0.15,0.1,0.00794328234724281,0,99
83,153,FarLowNarrow_null,0.1,0.15,0.2,0.06309573444801932,1,0.007421518999763066
83,154,FarHighWide,0.5,0.25,0.03,0.01995262314968879,1,0.42914634199996726
83,155,Constant,0.1,0.1,0.1,0.025118864315095794,1,0.31246995999981664
83,156,FarLowWide,0.03,0.25,0.5,0.031622776601683784,1,0.2863652790001652
83,157,Constant,0.1,0.1,0.1,0.01995262314968879,1,0.20457377100001395
83,158,FarLowNarrow,0.1,0.15,0.2,0.01995262314968879,1,0.3857315079999353
83,159,FarLowWide,0.03,0.25,0.5,0.02511886431509579,1,0.3266553959997509
83,160,FarLowNarrow,0.1,0.15,0.2,0.015848931924611127,1,0.29271817499966346
83,161,Constant,0.1,0.1,0.1,0.015848931924611127,1,0.22702559899971675
83,162,ThreeLinesControl,0.0,0.0,0.1,0.031622776601683784,1,0.3933791120002752
83,163,FarHighNarrow,0.2,0.15,0.1,0.009999999999999995,1,0.2249187190000157
83,164,Constant,0.1,0.1,0.1,0.012589254117941666,1,0.2535707009997168
83,165,FarLowNarrow,0.1,0.15,0.2,0.012589254117941666,0,0.30787763099988297
83,166,FarLowWide,0.03,0.25,0.5,0.01995262314968879,0,0.20886528599976373
83,167,ThreeLinesControl,0.0,0.0,0.1,0.02511886431509579,0,0.2550400489999447
83,168,ThreeLinesControl,0.0,0.0,0.1,0.031622776601683784,0,0.2773324859999775
83,169,FarLowNarrow,0.1,0.15,0.2,0.015848931924611127,1,0.5360599440000442
83,170,ThreeLinesControl,0.0,0.0,0.1,0.03981071705534971,0,0.4464723950000007
83,171,FarLowWide,0.03,0.25,0.5,0.025118864315095794,1,0.20382278299985046
83,172,FarHighNarrow,0.2,0.15,0.1,0.00794328234724281,1,0.37581389399974796
83,173,ThreeLinesControl,0.0,0.0,0.1,0.05011872336272721,1,0.4698150569997779
83,174,ThreeLinesControl_null,0.0,0.0,0.1,0.06309573444801932,1,0.4510875770001803
83,175,Constant,0.1,0.1,0.1,0.009999999999999995,0,0.26417414700017616
83,176,FarLowNarrow,0.1,0.15,0.2,0.012589254117941666,0,0.23839754999971774
83,177,Constant,0.1,0.1,0.1,0.012589254117941666,0,0.1966579299996738
83,178,FarHighNarrow_null,0.2,0.15,0.1,0.06309573444801932,1,0.2267230960001143
83,179,Constant,0.1,0.1,0.1,0.015848931924611127,0,0.2089411970000583
83,180,FarLowNarrow,0.1,0.15,0.2,0.015848931924611127,0,0.20817121099980795
83,181,Constant,0.1,0.1,0.1,0.01995262314968879,0,0.19136657899980491
83,182,FarHighNarrow,0.2,0.15,0.1,0.0063095734448019285,0,0.21937533900018025
83,183,FarLowWide,0.03,0.25,0.5,0.01995262314968879,0,0.21747670900003868
83,184,ThreeLinesControl,0.0,0.0,0.1,0.03981071705534971,1,0.47997695599997314
83,185,FarLowWide,0.03,0.25,0.5,0.025118864315095794,0,0.402448825999727
83,186,FarLowWide,0.03,0.25,0.5,0.031622776601683784,1,0.36081339700012904
83,187,FarLowWide,0.03,0.25,0.5,0.02511886431509579,1,0.19079599199994846
83,188,Constant_null,0.1,0.1,0.1,0.1,0,99
83,189,FarLowWide,0.03,0.25,0.5,0.01995262314968879,0,0.26433394900004714
83,190,FarLowNarrow,0.1,0.15,0.2,0.01995262314968879,0,99
83,191,FarHighNarrow,0.2,0.15,0.1,0.00794328234724281,1,0.40356687299981786
83,192,FarHighNarrow,0.2,0.15,0.1,0.0063095734448019285,0,0.23354232500014405
83,193,FarLowWide,0.03,0.25,0.5,0.025118864315095794,0,0.2797663520000242
83,194,FarLowNarrow,0.1,0.15,0.2,0.025118864315095794,0,0.30897386900005586
83,195,FarHighWide,0.5,0.25,0.03,0.015848931924611127,1,0.5470124570001644
83,196,ThreeLinesControl,0.0,0.0,0.1,0.031622776601683784,0,99
83,197,FarHighNarrow,0.2,0.15,0.1,0.00794328234724281,1,0.33695081799987747
83,198,ThreeLinesControl,0.0,0.0,0.1,0.03981071705534971,1,0.23162528199964072
83,199,ThreeLinesControl,0.0,0.0,0.1,0.031622776601683784,1,0.17969753900024443
83,200,Constant_null,0.1,0.1,0.1,0.1,0,0.21796988200003398
83,201,FarLowNarrow_null,0.1,0.15,0.2,0.05011872336272722,1,0.5649444299997413
83,202,Constant,0.1,0.1,0.1,0.025118864315095794,1,0.4832087770000726
83,203,FarHighWide_null,0.5,0.25,0.03,0.06309573444801932,1,0.7133171749997018
83,204,FarHighNarrow,0.2,0.15,0.1,0.0063095734448019285,0,0.43534251299979587
83,205,ThreeLinesControl,0.0,0.0,0.1,0.02511886431509579,0,0.47331660500003636
83,206,ThreeLinesControl,0.0,0.0,0.1,0.031622776601683784,1,0.22390241499988406
83,207,FarHighWide,0.5,0.25,0.03,0.012589254117941666,1,0.40459658700001455
83,208,FarHighWide,0.5,0.25,0.03,0.009999999999999995,1,0.49883565900017857
83,209,FarHighNarrow,0.2,0.15,0.1,0.00794328234724281,1,0.20939585999985866
83,210,FarLowWide,0.03,0.25,0.5,0.031622776601683784,0,0.41537174499990215
83,211,FarLowNarrow,0.1,0.15,0.2,0.031622776601683784,0,0.30920733899984043
83,212,FarLowWide,0.03,0.25,0.5,0.03981071705534971,1,0.3802291129995865
83,213,FarLowNarrow,0.1,0.15,0.2,0.03981071705534971,1,0.21103185899983146
83,214,FarHighNarrow,0.2,0.15,0.1,0.0063095734448019285,1,0.345221625999784
83,215,FarHighWide,0.5,0.25,0.03,0.00794328234724281,0,0.4523384819999592
83,216,FarHighNarrow,0.2,0.15,0.1,0.005011872336272719,1,0.17084265599987702
83,217,FarLowWide_null,0.03,0.25,0.5,0.1,1,0.5361074870002085
83,218,FarHighNarrow,0.2,0.15,0.1,0.00398107170553497,0,0.40346220099991115
83,219,FarLowNarrow,0.1,0.15,0.2,0.031622776601683784,0,0.2574247210000067
83,220,FarLowNarrow,0.1,0.15,0.2,0.03981071705534971,1,0.5165207049999481
83,221,FarLowWide,0.03,0.25,0.5,0.031622776601683784,1,0.25105676999965
83,222,FarHighWide,0.5,0.25,0.03,0.009999999999999995,1,0.1849697389998255
83,223,ThreeLinesControl,0.0,0.0,0.1,0.02511886431509579,1,0.38223830799961434
83,224,FarHighNarrow,0.2,0.15,0.1,0.00501187233627272,0,0.2999629519999871
83,225,FarHighWide,0.5,0.25,0.03,0.00794328234724281,0,0.25058537400036585
83,226,FarHighNarrow,0.2,0.15,0.1,0.006309573444801929,0,0.3608372009998675
83,227,FarLowNarrow,0.1,0.15,0.2,0.031622776601683784,0,0.19848410299982788
83,228,FarHighWide,0.5,0.25,0.03,0.009999999999999995,1,0.5014402300002985
83,229,FarHighNarrow_null,0.2,0.15,0.1,0.05011872336272722,0,99
83,230,Constant_null,0.1,0.1,0.1,0.1,1,0.30656548899969494
83,231,FarHighWide_null,0.5,0.25,0.03,0.05011872336272722,1,0.34946102499998233
83,232,FarHighWide,0.5,0.25,0.03,0.00794328234724281,0,0.21963943199989444
83,233,FarLowNarrow,0.1,0.15,0.2,0.03981071705534971,1,0.3297767039998689
83,234,FarLowNarrow,0.1,0.15,0.2,0.031622776601683784,1,0.5563087989999076
83,235,Constant,0.1,0.1,0.1,0.01995262314968879,1,0.5629021980003017
83,236,FarHighNarrow,0.2,0.15,0.1,0.007943282347242812,1,0.616877440999815
83,237,FarLowWide,0.03,0.25,0.5,0.02511886431509579,1,0.572286847000214
83,238,ThreeLinesControl,0.0,0.0,0.1,0.01995262314968879,1,0.5145283599999857
83,239,FarHighNarrow,0.2,0.15,0.1,0.006309573444801929,1,0.3357242659999429
83,240,FarHighWide,0.5,0.25,0.03,0.009999999999999995,1,0.5522065430000112
83,241,Constant,0.1,0.1,0.1,0.015848931924611127,0,0.4384364010002173
83,242,Constant_null,0.1,0.1,0.1,0.07943282347242815,1,0.2926968179999676
83,243,FarHighWide,0.5,0.25,0.03,0.00794328234724281,0,0.1994182160001401
83,244,FarHighWide,0.5,0.25,0.03,0.009999999999999995,0,0.32579834300031507
83,245,FarHighWide,0.5,0.25,0.03,0.012589254117941666,0,0.10795890999997937
83,246,FarHighWide,0.5,0.25,0.03,0.015848931924611127,0,0.17029537600001277
83,247,FarLowWide,0.03,0.25,0.5,0.01995262314968879,0,0.3762196600000607
83,248,FarLowWide_null,0.03,0.25,0.5,0.07943282347242815,1,0.15853482500006066
83,249,Constant,0.1,0.1,0.1,0.01995262314968879,1,0.4434621200002766
83,250,ThreeLinesControl,0.0,0.0,0.1,0.015848931924611127,1,0.28959603399971456
83,251,Constant_null,0.1,0.1,0.1,0.06309573444801932,1,0.4160900639999454
83,252,FarHighNarrow,0.2,0.15,0.1,0.00501187233627272,0,0.5023670479999964
83,253,FarLowWide,0.03,0.25,0.5,0.025118864315095794,0,0.3141685079999661
83,254,Constant_null,0.1,0.1,0.1,0.05011872336272722,1,0.23993258900009096
83,255,FarLowWide_null,0.03,0.25,0.5,0.06309573444801932,1,0.37460173399995256
83,256,FarHighWide,0.5,0.25,0.03,0.01995262314968879,0,0.3777210289999857
83,257,FarHighNarrow,0.2,0.15,0.1,0.006309573444801929,0,0.33586791200013977
83,258,FarLowWide_null,0.03,0.25,0.5,0.05011872336272722,0,0.3498077710000871
83,259,ThreeLinesControl,0.0,0.0,0.1,0.012589254117941666,0,0.22535563100018408
83,260,FarHighWide,0.5,0.25,0.03,0.025118864315095794,0,0.19918171099971005
83,261,FarLowWide,0.03,0.25,0.5,0.031622776601683784,0,0.23736895000001823
83,262,FarLowWide_null,0.03,0.25,0.5,0.06309573444801932,1,0.2191266549998545
83,263,Constant,0.1,0.1,0.1,0.015848931924611127,0,99
83,264,FarHighWide,0.5,0.25,0.03,0.031622776601683784,0,0.22237426299989238
83,265,FarHighWide,0.5,0.25,0.03,0.03981071705534971,1,0.4366353759996855
83,266,ThreeLinesControl,0.0,0.0,0.1,0.015848931924611127,0,99
83,267,FarLowWide,0.03,0.25,0.5,0.03981071705534971,1,0.4576179509999747
83,268,Constant,0.1,0.1,0.1,0.01995262314968879,1,0.17679298899975038
83,269,FarHighWide,0.5,0.25,0.03,0.031622776601683784,1,0.646741762000147
83,270,FarLowWide,0.03,0.25,0.5,0.031622776601683784,1,0.2186654259999159
83,271,FarLowWide,0.03,0.25,0.5,0.02511886431509579,1,0.26493845999993937
83,272,FarHighNarrow_null,0.2,0.15,0.1,0.06309573444801932,1,0.5720741759996599
83,273,FarHighWide,0.5,0.25,0.03,0.02511886431509579,0,0.6649655159999384
83,274,FarHighWide,0.5,0.25,0.03,0.031622776601683784,0,0.23889237100001992
83,275,FarLowWide,0.03,0.25,0.5,0.01995262314968879,1,0.1794656780002697
83,276,Constant,0.1,0.1,0.1,0.015848931924611127,1,0.28139576100011254
83,277,FarHighWide,0.5,0.25,0.03,0.03981071705534971,1,0.19981463899966911
83,278,FarLowWide,0.03,0.25,0.5,0.015848931924611127,1,0.18099167599984867
83,279,FarLowWide,0.03,0.25,0.5,0.012589254117941666,0,0.32269995600017864
83,280,FarLowWide,0.03,0.25,0.5,0.015848931924611127,0,0.36923860100023376
83,281,ThreeLinesControl,0.0,0.0,0.1,0.01995262314968879,0,0.35922002500001327
83,282,FarLowNarrow,0.1,0.15,0.2,0.02511886431509579,0,99
83,283,FarHighNarrow,0.2,0.15,0.1,0.007943282347242812,1,0.1170967070002007
83,284,FarHighNarrow,0.2,0.15,0.1,0.006309573444801929,0,0.5072289660001843
83,285,Constant_null,0.1,0.1,0.1,0.03981071705534971,1,0.30514720599967404
83,286,ThreeLinesControl,0.0,0.0,0.1,0.025118864315095794,0,0.18914159299993116
83,287,Constant_null,0.1,0.1,0.1,0.031622776601683784,1,0.3461922719998256
83,288,FarLowWide_null,0.03,0.25,0.5,0.05011872336272722,1,0.28913580000016736
83,289,FarHighWide_null,0.5,0.25,0.03,0.03981071705534971,1,0.1795567420003863
83,290,Constant,0.1,0.1,0.1,0.012589254117941666,0,0.2973285799998848
83,291,Constant,0.1,0.1,0.1,0.015848931924611127,0,0.23788379600000553
83,292,Constant,0.1,0.1,0.1,0.01995262314968879,0,99
83,293,FarHighNarrow,0.2,0.15,0.1,0.007943282347242812,0,0.23405516000002535
83,294,FarLowNarrow,0.1,0.15,0.2,0.031622776601683784,0,99
83,295,ThreeLinesControl,0.0,0.0,0.1,0.031622776601683784,0,0.3663902940002117
83,296,Constant,0.1,0.1,0.1,0.025118864315095794,0,0.3074068360001547
83,297,FarHighNarrow,0.2,0.15,0.1,0.009999999999999997,0,0.18533032799996363
83,298,FarLowWide,0.03,0.25,0.5,0.01995262314968879,0,99
83,299,FarHighNarrow,0.2,0.15,0.1,0.012589254117941668,0,0.10898177199987913
83,300,FarLowWide,0.03,0.25,0.5,0.025118864315095794,0,99
83,301,ThreeLinesControl,0.0,0.0,0.1,0.03981071705534971,0,99
83,302,ThreeLinesControl,0.0,0.0,0.1,0.05011872336272721,1,0.22156658799985962
83,303,FarHighWide,0.5,0.25,0.03,0.031622776601683784,1,0.2831766750000497
83,304,FarLowWide,0.03,0.25,0.5,0.031622776601683784,1,0.23365700000022116
83,305,FarLowWide,0.03,0.25,0.5,0.02511886431509579,0,99
83,306,FarHighNarrow,0.2,0.15,0.1,0.01584893192461113,1,0.17113031099961518
83,307,FarHighWide,0.5,0.25,0.03,0.02511886431509579,1,0.1930202400003509
83,308,Constant,0.1,0.1,0.1,0.031622776601683784,1,0.07731088600030489
83,309,ThreeLinesControl,0.0,0.0,0.1,0.03981071705534971,0,99
83,310,FarHighNarrow,0.2,0.15,0.1,0.012589254117941668,1,0.16175403399984134
83,311,ThreeLinesControl,0.0,0.0,0.1,0.05011872336272721,1,0.16658774699999412
83,312,FarHighWide,0.5,0.25,0.03,0.01995262314968879,1,0.11670207199995275
83,313,FarHighNarrow,0.2,0.15,0.1,0.009999999999999997,1,0.10709423100024651
83,314,FarLowNarrow,0.1,0.15,0.2,0.03981071705534971,1,0.017138030999831244
83,315,FarLowNarrow,0.1,0.15,0.2,0.031622776601683784,1,0.2324354359998324
83,316,FarHighNarrow,0.2,0.15,0.1,0.007943282347242812,1,0.11746717599999101
83,317,FarLowNarrow,0.1,0.15,0.2,0.02511886431509579,1,0.2035874349999176
83,318,FarHighWide,0.5,0.25,0.03,0.015848931924611127,1,0.07167346699998234
83,319,ThreeLinesControl,0.0,0.0,0.1,0.03981071705534971,1,0.15790934799997558
83,320,ThreeLinesControl,0.0,0.0,0.1,0.031622776601683784,1,0.2521009590000176
83,321,FarLowWide,0.03,0.25,0.5,0.031622776601683784,1,0.27102998899999875
83,322,FarHighNarrow,0.2,0.15,0.1,0.006309573444801929,0,99
83,323,ThreeLinesControl,0.0,0.0,0.1,0.02511886431509579,0,99
83,324,FarLowNarrow,0.1,0.15,0.2,0.01995262314968879,0,0.19180136099976153
83,325,Constant,0.1,0.1,0.1,0.02511886431509579,0,99
83,326,FarHighNarrow,0.2,0.15,0.1,0.007943282347242812,0,0.19496771400008583
83,327,FarHighNarrow_null,0.2,0.15,0.1,0.05011872336272722,1,0.16115190000027724
83,328,Constant,0.1,0.1,0.1,0.031622776601683784,0,0.19112391199996637
83,329,FarHighWide,0.5,0.25,0.03,0.012589254117941666,0,0.2150115510003161
83,330,FarHighNarrow,0.2,0.15,0.1,0.009999999999999997,0,0.5716112049999538
83,331,FarHighWide,0.5,0.25,0.03,0.015848931924611127,0,0.2590276989999438
83,332,Constant,0.1,0.1,0.1,0.03981071705534971,0,0.2014772110001104
83,333,FarLowNarrow_null,0.1,0.15,0.2,0.03981071705534971,1,0.4140987370001312
83,334,FarHighWide,0.5,0.25,0.03,0.01995262314968879,0,0.3317270070001541
83,335,Constant,0.1,0.1,0.1,0.05011872336272721,1,0.519349818000137
83,336,FarLowNarrow,0.1,0.15,0.2,0.025118864315095794,1,0.2771600729997772
83,337,FarLowNarrow,0.1,0.15,0.2,0.01995262314968879,1,0.1764268520000769
83,338,FarLowNarrow,0.1,0.15,0.2,0.015848931924611127,1,0.37465915500024494
83,339,ThreeLinesControl,0.0,0.0,0.1,0.031622776601683784,1,0.19006465800021033
83,340,FarLowNarrow_null,0.1,0.15,0.2,0.031622776601683784,0,99
83,341,FarHighWide_null,0.5,0.25,0.03,0.031622776601683784,0,99
83,342,Constant,0.1,0.1,0.1,0.03981071705534971,1,0.5572686929999691
83,343,FarLowWide,0.03,0.25,0.5,0.02511886431509579,1,0.5154559749998953
83,344,FarLowWide,0.03,0.25,0.5,0.01995262314968879,1,0.27377016099990215
83,345,ThreeLinesControl,0.0,0.0,0.1,0.02511886431509579,1,0.5198311670001203
83,346,FarHighNarrow,0.2,0.15,0.1,0.012589254117941668,0,99
83,347,FarLowWide,0.03,0.25,0.5,0.015848931924611127,0,99
83,348,FarHighWide,0.5,0.25,0.03,0.025118864315095794,1,0.24107626399973014
83,349,ThreeLinesControl,0.0,0.0,0.1,0.01995262314968879,0,0.2153026979999595
83,350,FarLowNarrow,0.1,0.15,0.2,0.012589254117941666,0,0.18946395400007532
83,351,FarHighWide,0.5,0.25,0.03,0.01995262314968879,0,0.20059779299981528
83,352,FarLowNarrow,0.1,0.15,0.2,0.015848931924611127,0,0.18269186799989257
83,353,ThreeLinesControl,0.0,0.0,0.1,0.025118864315095794,0,0.2767661749999206
83,354,FarHighWide,0.5,0.25,0.03,0.025118864315095794,1,0.6640621890001057
83,355,FarLowWide,0.03,0.25,0.5,0.01995262314968879,1,0.23014229499995054
83,356,FarHighWide,0.5,0.25,0.03,0.01995262314968879,1,0.6343572209998456
83,357,FarHighWide_null,0.5,0.25,0.03,0.03981071705534971,0,99
83,358,FarLowWide,0.03,0.25,0.5,0.015848931924611127,0,99
83,359,FarLowNarrow_null,0.1,0.15,0.2,0.03981071705534971,0,0.33293755700015026
83,360,FarHighNarrow,0.2,0.15,0.1,0.01584893192461113,1,0.6438251340000534
83,361,ThreeLinesControl,0.0,0.0,0.1,0.031622776601683784,0,0.5114312489999975
83,362,ThreeLinesControl,0.0,0.0,0.1,0.03981071705534971,1,0.4536760910000339
83,363,FarHighWide,0.5,0.25,0.03,0.015848931924611127,1,0.42762308300007135
83,364,ThreeLinesControl,0.0,0.0,0.1,0.031622776601683784,0,0.29507898200017735
83,365,Constant,0.1,0.1,0.1,0.031622776601683784,1,0.34015508300035435
83,366,FarLowWide,0.03,0.25,0.5,0.01995262314968879,1,0.2001550329996462
83,367,FarLowWide,0.03,0.25,0.5,0.015848931924611127,0,0.17329883899992637
83,368,ThreeLinesControl,0.0,0.0,0.1,0.03981071705534971,1,0.3876906149998831
83,369,FarHighWide,0.5,0.25,0.03,0.012589254117941666,0,0.40953759400008494
83,370,FarLowWide,0.03,0.25,0.5,0.01995262314968879,1,0.43872837700018863
83,371,FarLowNarrow,0.1,0.15,0.2,0.01995262314968879,1,0.2924491499998112
83,372,FarLowNarrow,0.1,0.15,0.2,0.015848931924611127,1,0.33116941299977043
83,373,FarHighNarrow,0.2,0.15,0.1,0.012589254117941668,1,0.20923542699983955
83,374,ThreeLinesControl,0.0,0.0,0.1,0.031622776601683784,1,0.36762154500002
83,375,FarLowNarrow,0.1,0.15,0.2,0.012589254117941666,1,0.2866891170001509
83,376,Constant,0.1,0.1,0.1,0.02511886431509579,1,0.42085474000032264
83,377,Constant,0.1,0.1,0.1,0.01995262314968879,0,0.33570686599978217
83,378,FarHighNarrow,0.2,0.15,0.1,0.009999999999999997,0,0.14299251400007051
83,379,FarLowWide,0.03,0.25,0.5,0.015848931924611127,0,0.2204121079998913
83,380,ThreeLinesControl,0.0,0.0,0.1,0.02511886431509579,0,99
83,381,FarLowWide,0.03,0.25,0.5,0.01995262314968879,0,0.4775497139999061
83,382,FarHighWide,0.5,0.25,0.03,0.015848931924611127,0,0.22747084299999187
83,383,Constant,0.1,0.1,0.1,0.025118864315095794,0,0.2548396279998997
83,384,FarLowWide,0.03,0.25,0.5,0.025118864315095794,0,99
83,385,FarLowWide,0.03,0.25,0.5,0.031622776601683784,1,0.32310073100006775
83,386,FarLowNarrow,0.1,0.15,0.2,0.009999999999999995,1,0.19275398099989616
83,387,FarLowNarrow,0.1,0.15,0.2,0.00794328234724281,0,0.1661917149999681
83,388,FarHighWide,0.5,0.25,0.03,0.01995262314968879,0,99
83,389,FarHighWide,0.5,0.25,0.03,0.025118864315095794,0,99
83,390,Constant,0.1,0.1,0.1,0.031622776601683784,1,0.30492803700008153
83,391,FarHighNarrow,0.2,0.15,0.1,0.012589254117941668,1,0.11093393200007995
83,392,Constant,0.1,0.1,0.1,0.02511886431509579,0,99
83,393,Constant,0.1,0.1,0.1,0.031622776601683784,0,99
83,394,FarHighNarrow,0.2,0.15,0.1,0.009999999999999997,1,0.2723457150000286
83,395,FarHighWide,0.5,0.25,0.03,0.031622776601683784,1,0.1584417859999121
83,396,FarHighWide,0.5,0.25,0.03,0.02511886431509579,0,99
83,397,FarHighWide,0.5,0.25,0.03,0.031622776601683784,0,99
83,398,FarHighNarrow,0.2,0.15,0.1,0.007943282347242812,0,99
83,399,Constant,0.1,0.1,0.1,0.03981071705534971,0,99
83,400,ThreeLinesControl,0.0,0.0,0.1,0.031622776601683784,1,0.30316952300017874
83,401,ThreeLinesControl,0.0,0.0,0.1,0.02511886431509579,1,0.3963983119997465
83,402,Constant_null,0.1,0.1,0.1,0.02511886431509579,0,99
83,403,FarLowNarrow,0.1,0.15,0.2,0.009999999999999995,0,99
83,404,FarLowWide,0.03,0.25,0.5,0.02511886431509579,0,99
83,405,ThreeLinesControl,0.0,0.0,0.1,0.01995262314968879,0,99
83,406,FarHighWide,0.5,0.25,0.03,0.03981071705534971,0,0.2672597199998563
83,407,FarHighWide_null,0.5,0.25,0.03,0.05011872336272721,0,99
83,408,FarLowWide,0.03,0.25,0.5,0.031622776601683784,1,0.3916605790000176
83,409,FarLowNarrow,0.1,0.15,0.2,0.012589254117941666,0,0.5827246880003258
83,410,FarLowWide,0.03,0.25,0.5,0.02511886431509579,0,0.2416997039999842
83,411,FarHighNarrow,0.2,0.15,0.1,0.009999999999999997,0,0.20773484000028475
83,412,ThreeLinesControl,0.0,0.0,0.1,0.025118864315095794,0,0.2830072360002305
83,413,FarHighWide,0.5,0.25,0.03,0.05011872336272721,0,99
83,414,FarHighWide_null,0.5,0.25,0.03,0.0630957344480193,0,0.39136151200000313
83,415,Constant,0.1,0.1,0.1,0.05011872336272721,0,0.19458055199993396
83,416,ThreeLinesControl,0.0,0.0,0.1,0.031622776601683784,1,0.34433215099988956
83,417,Constant,0.1,0.1,0.1,0.0630957344480193,1,0.4706423160000668
83,418,ThreeLinesControl,0.0,0.0,0.1,0.02511886431509579,1,0.3090383519997886
83,419,FarLowWide,0.03,0.25,0.5,0.031622776601683784,1,0.2270119390000218
83,420,Constant,0.1,0.1,0.1,0.050118723362727206,1,0.31990305700037425
83,421,ThreeLinesControl,0.0,0.0,0.1,0.01995262314968879,0,99
83,422,FarHighNarrow,0.2,0.15,0.1,0.012589254117941668,0,0.3241270739999891
83,423,FarHighNarrow,0.2,0.15,0.1,0.01584893192461113,0,99
83,424,FarLowWide,0.03,0.25,0.5,0.02511886431509579,1,0.6418920060000346
83,425,FarHighWide,0.5,0.25,0.03,0.0630957344480193,1,0.4401834200002668
83,426,FarHighNarrow,0.2,0.15,0.1,0.019952623149688792,1,0.2922296510000706
83,427,ThreeLinesControl,0.0,0.0,0.1,0.025118864315095794,1,0.29813858799980153
83,428,Constant,0.1,0.1,0.1,0.039810717055349706,1,0.3988634390002517
83,429,FarHighNarrow,0.2,0.15,0.1,0.01584893192461113,0,99
83,430,FarHighWide,0.5,0.25,0.03,0.050118723362727206,1,0.3044861339999443
83,431,FarHighNarrow,0.2,0.15,0.1,0.019952623149688792,1,0.15686798000024282
83,432,ThreeLinesControl,0.0,0.0,0.1,0.01995262314968879,0,0.45905212299976483
83,433,ThreeLinesControl,0.0,0.0,0.1,0.025118864315095794,1,0.5451402839998991
83,434,FarLowNarrow,0.1,0.15,0.2,0.015848931924611127,1,0.2461106870000549
83,435,Constant,0.1,0.1,0.1,0.03162277660168378,1,0.4442535380003392
83,436,FarLowNarrow,0.1,0.15,0.2,0.012589254117941666,0,0.37829727500002264
83,437,FarHighWide,0.5,0.25,0.03,0.039810717055349706,1,0.5608238479999272
83,438,ThreeLinesControl,0.0,0.0,0.1,0.01995262314968879,0,99
83,439,FarLowWide,0.03,0.25,0.5,0.01995262314968879,0,0.3801994310001646
83,440,FarHighWide,0.5,0.25,0.03,0.03162277660168378,1,0.5476072540000132
83,441,FarLowNarrow_null,0.1,0.15,0.2,0.05011872336272721,0,99
83,442,FarHighWide,0.5,0.25,0.03,0.025118864315095787,1,0.4531430880001608
83,443,FarHighNarrow,0.2,0.15,0.1,0.01584893192461113,0,0.5315489760000673
83,444,FarLowNarrow,0.1,0.15,0.2,0.015848931924611127,0,0.425792791999811
83,445,FarHighWide,0.5,0.25,0.03,0.019952623149688785,0,0.2288241440001002
83,446,FarHighWide_null,0.5,0.25,0.03,0.07943282347242812,1,0.2752613120001115
83,447,FarLowNarrow_null,0.1,0.15,0.2,0.0630957344480193,1,0.2401131900001019
83,448,Constant,0.1,0.1,0.1,0.025118864315095787,1,0.5964132630001586
83,449,ThreeLinesControl,0.0,0.0,0.1,0.025118864315095794,0,0.3783879520001392
83,450,ThreeLinesControl,0.0,0.0,0.1,0.031622776601683784,0,0.3685730259999218
83,451,FarHighWide,0.5,0.25,0.03,0.025118864315095787,0,99
83,452,FarLowNarrow,0.1,0.15,0.2,0.01995262314968879,0,0.2289196440001433
83,453,FarHighWide,0.5,0.25,0.03,0.03162277660168378,0,0.2511206500003027
83,454,FarHighNarrow,0.2,0.15,0.1,0.019952623149688792,0,0.3851523079997605
83,455,FarLowWide,0.03,0.25,0.5,0.025118864315095794,0,0.1914959999999155
83,456,FarLowNarrow,0.1,0.15,0.2,0.025118864315095794,1,0.35785577100023147
83,457,Constant_null,0.1,0.1,0.1,0.031622776601683784,1,0.5556779140001709
83,458,FarLowWide,0.03,0.25,0.5,0.031622776601683784,0,0.2948763540002801
83,459,Constant,0.1,0.1,0.1,0.019952623149688785,0,0.0847575129996585
83,460,Constant,0.1,0.1,0.1,0.025118864315095787,0,0.059078506999867386
83,461,FarLowWide,0.03,0.25,0.5,0.03981071705534971,0,0.20616779900001347
83,462,FarLowWide,0.03,0.25,0.5,0.05011872336272721,0,0.18844303800005946
83,463,ThreeLinesControl,0.0,0.0,0.1,0.03981071705534971,0,99
83,464,Constant_null,0.1,0.1,0.1,0.02511886431509579,0,99
83,465,FarLowNarrow,0.1,0.15,0.2,0.01995262314968879,0,0.18905665300007968
83,466,FarHighWide,0.5,0.25,0.03,0.039810717055349706,0,0.17889721000028658
83,467,Constant,0.1,0.1,0.1,0.03162277660168378,1,0.2560964959998273
83,468,FarHighNarrow_null,0.2,0.15,0.1,0.03981071705534971,0,0.15794719199993779
83,469,FarLowNarrow_null,0.1,0.15,0.2,0.050118723362727206,1,0.26944093000020075
83,470,Constant,0.1,0.1,0.1,0.025118864315095787,0,0.3395690749998721
83,471,ThreeLinesControl,0.0,0.0,0.1,0.05011872336272721,0,0.33055478200003563
83,472,FarLowWide,0.03,0.25,0.5,0.0630957344480193,0,99
83,473,ThreeLinesControl,0.0,0.0,0.1,0.0630957344480193,0,0.3269883839998329
83,474,FarLowWide,0.03,0.25,0.5,0.07943282347242812,1,0.30041468600029475
83,475,FarHighNarrow,0.2,0.15,0.1,0.025118864315095798,1,0.5203723600002377
83,476,ThreeLinesControl,0.0,0.0,0.1,0.07943282347242812,1,0.26287503999992623
83,477,FarLowNarrow,0.1,0.15,0.2,0.025118864315095794,1,0.2417143610000494
83,478,FarLowWide,0.03,0.25,0.5,0.0630957344480193,0,99
83,479,FarLowWide_null,0.03,0.25,0.5,0.03981071705534971,1,0.41399830000000293
83,480,FarHighWide,0.5,0.25,0.03,0.050118723362727206,1,0.6580103930000405
83,481,FarHighWide,0.5,0.25,0.03,0.039810717055349706,1,0.3491799110001921
83,482,FarHighWide,0.5,0.25,0.03,0.03162277660168378,1,0.28327782299993487
83,483,FarHighNarrow,0.2,0.15,0.1,0.019952623149688792,1,0.1533256220000112
83,484,FarHighWide,0.5,0.25,0.03,0.025118864315095787,1,0.2839754000001449
83,485,FarLowWide,0.03,0.25,0.5,0.07943282347242812,0,99
83,486,FarLowWide,0.03,0.25,0.5,0.09999999999999998,1,0.3108307079996848
83,487,ThreeLinesControl,0.0,0.0,0.1,0.0630957344480193,1,0.1568712699995558
83,488,Constant,0.1,0.1,0.1,0.03162277660168378,1,0.16307775799987212
83,489,FarHighWide,0.5,0.25,0.03,0.019952623149688785,1,0.3611014709999836
83,490,FarLowNarrow,0.1,0.15,0.2,0.01995262314968879,1,0.5114518240002326
83,491,Constant,0.1,0.1,0.1,0.025118864315095787,1,0.3175501919999988
83,492,FarLowNarrow,0.1,0.15,0.2,0.015848931924611127,1,0.5720764530001361
83,493,ThreeLinesControl,0.0,0.0,0.1,0.050118723362727206,1,0.4021239969997623
83,494,FarHighNarrow,0.2,0.15,0.1,0.01584893192461113,0,99
83,495,FarHighNarrow,0.2,0.15,0.1,0.019952623149688792,1,0.30201293100026305
83,496,FarLowWide,0.03,0.25,0.5,0.07943282347242812,1,0.08444572100006553
83,497,FarHighNarrow,0.2,0.15,0.1,0.01584893192461113,1,0.21510290799960785
83,498,FarLowWide,0.03,0.25,0.5,0.0630957344480193,1,0.7815063980001469
83,499,FarLowWide,0.03,0.25,0.5,0.050118723362727206,1,0.5637241389999872
83,500,Constant,0.1,0.1,0.1,0.019952623149688785,1,0.27070197600005486
83,501,Constant,0.1,0.1,0.1,0.015848931924611124,1,0.28429183899970667
83,502,FarHighWide,0.5,0.25,0.03,0.015848931924611124,1,0.21817656800021723
83,503,FarLowNarrow,0.1,0.15,0.2,0.012589254117941666,1,0.19235427200010236
83,504,FarLowWide,0.03,0.25,0.5,0.039810717055349706,1,0.18163314799994623
83,505,FarHighNarrow,0.2,0.15,0.1,0.012589254117941668,1,0.28344946000015625
83,506,Constant,0.1,0.1,0.1,0.012589254117941663,1,0.22558155600017926
83,507,ThreeLinesControl,0.0,0.0,0.1,0.039810717055349706,1,0.15978094699994472
83,508,Constant,0.1,0.1,0.1,0.009999999999999992,1,0.24617071200009377
83,509,FarLowNarrow,0.1,0.15,0.2,0.009999999999999995,0,99
83,510,FarLowNarrow,0.1,0.15,0.2,0.012589254117941666,1,0.21156737000001158
83,511,Constant,0.1,0.1,0.1,0.007943282347242809,0,0.1524458830003823
83,512,FarLowNarrow,0.1,0.15,0.2,0.009999999999999995,0,0.09331956200003333
83,513,FarLowNarrow,0.1,0.15,0.2,0.012589254117941666,0,0.2036978729997827
83,514,FarLowWide,0.03,0.25,0.5,0.03162277660168378,0,0.046940468000229885
83,515,FarHighWide,0.5,0.25,0.03,0.012589254117941663,0,0.9167099800001779
83,516,FarLowWide,0.03,0.25,0.5,0.039810717055349706,1,0.48016485000016473
83,517,FarHighWide,0.5,0.25,0.03,0.015848931924611124,1,0.36611403599999903
83,518,FarHighWide,0.5,0.25,0.03,0.012589254117941663,1,0.42791964999969423
83,519,FarLowNarrow,0.1,0.15,0.2,0.015848931924611127,0,0.25748762400007763
83,520,FarLowNarrow,0.1,0.15,0.2,0.01995262314968879,0,0.2159239479997268
83,521,FarLowWide,0.03,0.25,0.5,0.03162277660168378,0,0.42199607600014133
83,522,Constant,0.1,0.1,0.1,0.009999999999999993,0,0.38820070300016596
83,523,FarHighWide_null,0.5,0.25,0.03,0.0630957344480193,0,99
83,524,ThreeLinesControl_null,0.0,0.0,0.1,0.05011872336272722,1,0.305013116000282
83,525,FarLowWide,0.03,0.25,0.5,0.039810717055349706,0,99
83,526,FarHighNarrow,0.2,0.15,0.1,0.009999999999999997,1,0.1336498550003853
83,527,FarLowWide,0.03,0.25,0.5,0.050118723362727206,0,99
83,528,ThreeLinesControl,0.0,0.0,0.1,0.03162277660168378,0,99
83,529,ThreeLinesControl,0.0,0.0,0.1,0.039810717055349706,0,99
83,530,ThreeLinesControl,0.0,0.0,0.1,0.050118723362727206,1,0.33738685999969675
83,531,FarHighNarrow_null,0.2,0.15,0.1,0.05011872336272721,1,0.42344360100014455
83,532,Constant,0.1,0.1,0.1,0.012589254117941664,1,0.3946706430001541
83,533,FarLowWide,0.03,0.25,0.5,0.0630957344480193,1,0.3366996790000485
83,534,FarHighWide,0.5,0.25,0.03,0.009999999999999992,1,0.3576678909998918
83,535,FarLowWide,0.03,0.25,0.5,0.050118723362727206,1,0.4999841569997443
83,536,FarLowNarrow,0.1,0.15,0.2,0.025118864315095794,0,0.32214011599990044
83,537,FarHighWide,0.5,0.25,0.03,0.007943282347242809,0,0.5843740000000253
83,538,FarHighNarrow,0.2,0.15,0.1,0.007943282347242812,0,0.27751224399980856
83,539,FarHighWide,0.5,0.25,0.03,0.009999999999999993,0,0.29175537099990834
83,540,FarHighNarrow_null,0.2,0.15,0.1,0.03981071705534971,1,0.27367749900031413
83,541,FarHighNarrow,0.2,0.15,0.1,0.009999999999999997,0,0.5201942190001319
83,542,FarLowWide,0.03,0.25,0.5,0.039810717055349706,0,99
83,543,Constant,0.1,0.1,0.1,0.009999999999999993,0,0.16343310599995675
83,544,FarHighNarrow_null,0.2,0.15,0.1,0.031622776601683784,1,0.03322369900024569
83,545,ThreeLinesControl,0.0,0.0,0.1,0.039810717055349706,0,0.11926011799960179
83,546,ThreeLinesControl,0.0,0.0,0.1,0.050118723362727206,0,0.3625969299996541
83,547,FarHighNarrow,0.2,0.15,0.1,0.012589254117941668,0,0.5917238249999173
83,548,Constant_null,0.1,0.1,0.1,0.031622776601683784,0,0.22213130799991632
83,549,Constant,0.1,0.1,0.1,0.012589254117941664,1,0.4972145570000066
83,550,FarHighNarrow,0.2,0.15,0.1,0.01584893192461113,0,0.48622799699978714
83,551,FarLowNarrow,0.1,0.15,0.2,0.031622776601683784,1,0.4442914619999101
83,552,FarLowNarrow,0.1,0.15,0.2,0.02511886431509579,1,0.3545673110002099
83,553,FarLowWide,0.03,0.25,0.5,0.050118723362727206,0,99
83,554,FarLowNarrow,0.1,0.15,0.2,0.01995262314968879,0,99
83,555,FarHighNarrow,0.2,0.15,0.1,0.019952623149688792,1,0.4772373470000275
83,556,FarHighNarrow,0.2,0.15,0.1,0.01584893192461113,0,99
83,557,FarHighWide,0.5,0.25,0.03,0.012589254117941664,0,99
83,558,FarHighNarrow,0.2,0.15,0.1,0.019952623149688792,1,0.5919654580002316
83,559,FarHighNarrow,0.2,0.15,0.1,0.01584893192461113,0,99
83,560,FarHighNarrow,0.2,0.15,0.1,0.019952623149688792,0,99
83,561,ThreeLinesControl_null,0.0,0.0,0.1,0.03981071705534971,1,0.39198537699985536
83,562,FarHighNarrow,0.2,0.15,0.1,0.025118864315095798,0,0.20309627899996485
83,563,ThreeLinesControl,0.0,0.0,0.1,0.0630957344480193,0,99
83,564,Constant_null,0.1,0.1,0.1,0.03981071705534971,1,0.399353076999887
83,565,FarLowWide,0.03,0.25,0.5,0.0630957344480193,0,99
83,566,FarHighWide,0.5,0.25,0.03,0.015848931924611127,1,0.5046623789999103
83,567,FarHighWide,0.5,0.25,0.03,0.012589254117941666,0,99
83,568,Constant_null,0.1,0.1,0.1,0.031622776601683784,0,99
83,569,FarLowNarrow,0.1,0.15,0.2,0.025118864315095794,0,0.505961151000065
83,570,ThreeLinesControl_null,0.0,0.0,0.1,0.031622776601683784,1,0.2891740939999181
83,571,FarHighNarrow,0.2,0.15,0.1,0.03162277660168379,1,0.438200833999872
83,572,Constant,0.1,0.1,0.1,0.009999999999999993,0,99
83,573,FarLowWide_null,0.03,0.25,0.5,0.031622776601683784,1,0.3312938989997747
83,574,FarHighNarrow,0.2,0.15,0.1,0.025118864315095798,0,0.41821088300002884
83,575,FarHighNarrow_null,0.2,0.15,0.1,0.02511886431509579,1,0.48014815099986663
83,576,FarLowNarrow,0.1,0.15,0.2,0.031622776601683784,1,0.6042281439999897
83,577,Constant,0.1,0.1,0.1,0.012589254117941664,0,0.5063037780000741
83,578,FarHighNarrow_null,0.2,0.15,0.1,0.01995262314968879,1,0.3254192630001853
83,579,FarLowNarrow,0.1,0.15,0.2,0.02511886431509579,0,0.34662671900014175
83,580,FarHighNarrow,0.2,0.15,0.1,0.03162277660168379,1,0.4487607820001358
83,581,ThreeLinesControl,0.0,0.0,0.1,0.07943282347242812,0,0.596183110000311
83,582,ThreeLinesControl,0.0,0.0,0.1,0.09999999999999998,1,0.5470203440004298
83,583,FarHighNarrow,0.2,0.15,0.1,0.025118864315095798,1,0.32010166999998546
83,584,FarHighNarrow,0.2,0.15,0.1,0.019952623149688792,1,0.3579724900000656
83,585,FarHighNarrow,0.2,0.15,0.1,0.01584893192461113,1,0.2524191669999709
83,586,Constant,0.1,0.1,0.1,0.015848931924611127,1,0.30674934899980144
83,587,FarLowWide,0.03,0.25,0.5,0.07943282347242812,1,0.22481680999999298
83,588,ThreeLinesControl,0.0,0.0,0.1,0.07943282347242812,1,0.19894539200004147
83,589,FarHighNarrow,0.2,0.15,0.1,0.012589254117941668,1,0.5093981119998716
83,590,FarHighNarrow,0.2,0.15,0.1,0.009999999999999997,0,0.235506032000103
83,591,FarHighWide,0.5,0.25,0.03,0.015848931924611127,1,0.6828879620002226
83,592,Constant,0.1,0.1,0.1,0.012589254117941666,1,0.7013773170001514
83,593,ThreeLinesControl,0.0,0.0,0.1,0.0630957344480193,0,0.547598587000266
83,594,FarHighWide,0.5,0.25,0.03,0.012589254117941666,0,0.7620164150002893
83,595,Constant,0.1,0.1,0.1,0.009999999999999995,0,0.3650139660003333
83,596,FarLowWide,0.03,0.25,0.5,0.0630957344480193,1,0.450919845000044
83,597,Constant_null,0.1,0.1,0.1,0.03981071705534971,1,0.5433370649998324
83,598,Constant,0.1,0.1,0.1,0.012589254117941666,1,0.5644277080000393
83,599,FarLowWide_null,0.03,0.25,0.5,0.02511886431509579,1,0.5058877580004264
83,600,ThreeLinesControl,0.0,0.0,0.1,0.07943282347242812,1,0.7618766849996064
83,601,FarHighNarrow,0.2,0.15,0.1,0.012589254117941668,0,0.760188836999987
83,602,FarLowNarrow,0.1,0.15,0.2,0.031622776601683784,1,0.40618191700013995
83,603,FarHighWide,0.5,0.25,0.03,0.015848931924611127,1,0.35633050699971136
83,604,FarHighNarrow,0.2,0.15,0.1,0.01584893192461113,0,0.3293570370001362
83,605,Constant,0.1,0.1,0.1,0.009999999999999995,0,0.31125147000011566
83,606,FarLowNarrow,0.1,0.15,0.2,0.02511886431509579,0,0.1826683710000907
83,607,Constant,0.1,0.1,0.1,0.012589254117941666,0,0.37982615100008843
83,608,FarHighNarrow,0.2,0.15,0.1,0.019952623149688792,0,0.23406050000039613
83,609,FarHighNarrow,0.2,0.15,0.1,0.025118864315095798,0,0.18407732100013163
83,610,FarLowWide,0.03,0.25,0.5,0.050118723362727206,0,0.13114096600020275
83,611,FarLowWide,0.03,0.25,0.5,0.0630957344480193,0,0.1383158819999153
83,612,FarHighWide,0.5,0.25,0.03,0.012589254117941666,0,0.3035850209998898
83,613,FarHighWide,0.5,0.25,0.03,0.015848931924611127,0,0.24238978900029906
83,614,FarLowNarrow,0.1,0.15,0.2,0.031622776601683784,0,0.3928932569997414
83,615,ThreeLinesControl,0.0,0.0,0.1,0.0630957344480193,0,99
83,616,FarHighWide,0.5,0.25,0.03,0.01995262314968879,1,0.5313544239998009
83,617,FarHighNarrow,0.2,0.15,0.1,0.03162277660168379,1,0.3374280670000189
83,618,FarHighWide,0.5,0.25,0.03,0.015848931924611127,1,0.4792795359999218
83,619,FarLowWide,0.03,0.25,0.5,0.07943282347242812,1,0.564785498999754
83,620,ThreeLinesControl,0.0,0.0,0.1,0.07943282347242812,1,0.6678969259996848
83,621,ThreeLinesControl,0.0,0.0,0.1,0.0630957344480193,1,0.21703239399994345
83,622,FarLowNarrow_null,0.1,0.15,0.2,0.039810717055349706,0,99
83,623,FarLowWide,0.03,0.25,0.5,0.0630957344480193,1,0.45347075700010464
83,624,FarHighNarrow,0.2,0.15,0.1,0.025118864315095798,1,0.32395823400020163
83,625,Constant,0.1,0.1,0.1,0.015848931924611127,0,0.6189085609998983
83,626,ThreeLinesControl,0.0,0.0,0.1,0.050118723362727206,0,99
83,627,FarLowNarrow,0.1,0.15,0.2,0.03981071705534971,1,0.23589278100007505
83,628,FarHighWide,0.5,0.25,0.03,0.012589254117941666,0,0.6178042859996822
83,629,ThreeLinesControl,0.0,0.0,0.1,0.0630957344480193,1,0.42923435500006235
83,630,FarHighWide,0.5,0.25,0.03,0.015848931924611127,0,0.5314818420001757
83,631,ThreeLinesControl,0.0,0.0,0.1,0.050118723362727206,1,0.6155599720000282
83,632,FarLowWide_null,0.03,0.25,0.5,0.01995262314968879,0,99
83,633,Constant,0.1,0.1,0.1,0.01995262314968879,0,0.6186597909995726
83,634,FarLowNarrow,0.1,0.15,0.2,0.031622776601683784,1,0.5607184589998724
83,635,FarLowWide,0.03,0.25,0.5,0.050118723362727206,0,0.3030602259996158
83,636,Constant,0.1,0.1,0.1,0.025118864315095794,1,0.46102341799996793
83,637,ThreeLinesControl,0.0,0.0,0.1,0.039810717055349706,1,0.31692226599989226
83,638,FarHighWide,0.5,0.25,0.03,0.01995262314968879,0,0.5945033980001426
83,639,FarHighNarrow,0.2,0.15,0.1,0.019952623149688792,1,0.46375208400013435
83,640,FarHighWide,0.5,0.25,0.03,0.025118864315095794,1,0.30840454100007264
83,641,ThreeLinesControl,0.0,0.0,0.1,0.03162277660168378,1,0.3228744050002206
83,642,FarLowWide,0.03,0.25,0.5,0.0630957344480193,1,0.23012788199957868
83,643,FarHighWide,0.5,0.25,0.03,0.01995262314968879,1,0.2684178370000154
83,644,FarHighNarrow,0.2,0.15,0.1,0.01584893192461113,1,0.1780064009999478
83,645,ThreeLinesControl,0.0,0.0,0.1,0.025118864315095787,1,0.28549308199990264
83,646,FarLowWide,0.03,0.25,0.5,0.050118723362727206,1,0.1316183940002702
83,647,FarLowNarrow,0.1,0.15,0.2,0.02511886431509579,1,0.07277306400010275
83,648,FarHighWide,0.5,0.25,0.03,0.015848931924611127,1,0.0940568070000154
83,649,FarHighNarrow,0.2,0.15,0.1,0.012589254117941668,1,0.3161594339999283
83,650,ThreeLinesControl,0.0,0.0,0.1,0.019952623149688785,0,0.23402713300038158
83,651,Constant,0.1,0.1,0.1,0.01995262314968879,0,0.3595035819998884
83,652,FarLowNarrow,0.1,0.15,0.2,0.01995262314968879,0,99
83,653,FarHighWide,0.5,0.25,0.03,0.012589254117941666,0,0.2776244819997373
83,654,FarHighNarrow,0.2,0.15,0.1,0.009999999999999997,0,0.21877867500006687
83,655,FarHighNarrow,0.2,0.15,0.1,0.012589254117941668,0,0.296884709999631
83,656,FarLowNarrow,0.1,0.15,0.2,0.025118864315095794,0,0.20622734400012632
83,657,Constant,0.1,0.1,0.1,0.025118864315095794,1,0.3562827769997057
83,658,Constant,0.1,0.1,0.1,0.01995262314968879,1,0.5463854079998782
83,659,FarHighNarrow,0.2,0.15,0.1,0.01584893192461113,1,0.34952462799992645
83,660,FarLowNarrow_null,0.1,0.15,0.2,0.050118723362727206,0,0.2828617169998324
83,661,FarLowNarrow,0.1,0.15,0.2,0.031622776601683784,0,0.2229055640000297
83,662,FarHighNarrow,0.2,0.15,0.1,0.012589254117941668,0,0.35606195300033505
83,663,FarHighWide,0.5,0.25,0.03,0.015848931924611127,0,99
83,664,Constant,0.1,0.1,0.1,0.015848931924611127,0,99
83,665,FarLowWide,0.03,0.25,0.5,0.039810717055349706,1,0.26162774200020067
83,666,Constant,0.1,0.1,0.1,0.01995262314968879,1,0.4676832190002642
83,667,FarHighWide,0.5,0.25,0.03,0.01995262314968879,1,0.40070253500016406
83,668,FarHighWide,0.5,0.25,0.03,0.015848931924611127,1,0.34268056400014757
83,669,FarLowWide,0.03,0.25,0.5,0.03162277660168378,0,99
83,670,FarHighWide,0.5,0.25,0.03,0.012589254117941666,1,0.44429379899975174
83,671,FarLowWide,0.03,0.25,0.5,0.039810717055349706,1,0.2987202599997545
83,672,FarHighWide,0.5,0.25,0.03,0.009999999999999995,1,0.2554337410001608
83,673,ThreeLinesControl,0.0,0.0,0.1,0.025118864315095787,1,0.5726004250000187
83,674,FarHighWide,0.5,0.25,0.03,0.00794328234724281,1,0.42786036300003616
83,675,FarHighNarrow,0.2,0.15,0.1,0.01584893192461113,1,0.27893508900024244
83,676,FarHighWide,0.5,0.25,0.03,0.0063095734448019285,0,0.500200832000246
83,677,FarLowWide_null,0.03,0.25,0.5,0.025118864315095794,1,0.26749793900035
83,678,FarHighWide,0.5,0.25,0.03,0.00794328234724281,0,0.23841249799988873
83,679,FarLowWide_null,0.03,0.25,0.5,0.01995262314968879,1,0.1723956430000726
83,680,FarLowWide,0.03,0.25,0.5,0.03162277660168378,0,0.24990219899973454
83,681,FarLowWide_null,0.03,0.25,0.5,0.015848931924611127,1,0.3828283900002134
83,682,FarLowNarrow_null,0.1,0.15,0.2,0.0630957344480193,1,0.3329611560002377
83,683,Constant,0.1,0.1,0.1,0.015848931924611127,1,0.5155386699998417
83,684,Constant,0.1,0.1,0.1,0.012589254117941666,0,0.432860847000029
83,685,ThreeLinesControl_null,0.0,0.0,0.1,0.02511886431509579,0,0.5276150350000535
83,686,FarLowNarrow,0.1,0.15,0.2,0.03981071705534971,1,0.38181638900005055
83,687,ThreeLinesControl,0.0,0.0,0.1,0.019952623149688785,1,0.5413119069999084
83,688,Constant,0.1,0.1,0.1,0.015848931924611127,1,0.560890155999914
83,689,FarHighNarrow,0.2,0.15,0.1,0.012589254117941668,0,0.29509388499991474
83,690,FarHighNarrow,0.2,0.15,0.1,0.01584893192461113,0,0.2362555140002769
83,691,ThreeLinesControl,0.0,0.0,0.1,0.015848931924611124,0,0.28042336099997556
83,692,FarLowNarrow_null,0.1,0.15,0.2,0.050118723362727206,0,99
83,693,FarLowWide,0.03,0.25,0.5,0.039810717055349706,1,0.46793795100029456
83,694,ThreeLinesControl,0.0,0.0,0.1,0.019952623149688785,0,0.4958938599997964
83,695,FarHighNarrow,0.2,0.15,0.1,0.019952623149688792,0,0.4210021409999172
83,696,FarLowWide,0.03,0.25,0.5,0.03162277660168378,0,0.30605652699978236
83,697,ThreeLinesControl,0.0,0.0,0.1,0.025118864315095787,1,0.23198910400014938
83,698,FarHighNarrow_null,0.2,0.15,0.1,0.015848931924611127,0,99
83,699,Constant,0.1,0.1,0.1,0.012589254117941666,1,0.06037419599988425
83,700,Constant,0.1,0.1,0.1,0.009999999999999995,0,99
83,701,Constant_null,0.1,0.1,0.1,0.031622776601683784,0,0.2728514929999619
83,702,FarLowNarrow,0.1,0.15,0.2,0.031622776601683784,0,0.2153800930000216
83,703,ThreeLinesControl,0.0,0.0,0.1,0.019952623149688785,0,0.3332144250002784
83,704,Constant,0.1,0.1,0.1,0.012589254117941666,0,0.4684536110003137
83,705,FarLowNarrow,0.1,0.15,0.2,0.03981071705534971,1,0.4082071120001274
83,706,FarHighNarrow,0.2,0.15,0.1,0.025118864315095798,0,99
83,707,FarHighNarrow,0.2,0.15,0.1,0.03162277660168379,0,99
83,708,FarLowNarrow,0.1,0.15,0.2,0.031622776601683784,0,0.5201058970001213
83,709,FarLowNarrow,0.1,0.15,0.2,0.03981071705534971,1,0.15793707900002119
83,710,FarHighNarrow_null,0.2,0.15,0.1,0.01995262314968879,0,99
83,711,FarHighWide,0.5,0.25,0.03,0.009999999999999995,1,0.37517072699984055
83,712,FarHighWide,0.5,0.25,0.03,0.00794328234724281,0,0.4525563970000803
83,713,FarHighWide_null,0.5,0.25,0.03,0.07943282347242812,1,0.2265116459998353
83,714,FarHighWide,0.5,0.25,0.03,0.009999999999999995,0,0.20081434099984108
83,715,FarLowNarrow,0.1,0.15,0.2,0.031622776601683784,0,0.11079669699984152
83,716,FarLowWide,0.03,0.25,0.5,0.039810717055349706,1,0.6839544889999161
83,717,FarHighWide,0.5,0.25,0.03,0.012589254117941666,1,0.25802014699957
83,718,FarLowWide_null,0.03,0.25,0.5,0.012589254117941666,1,0.2806067249998705
83,719,Constant,0.1,0.1,0.1,0.015848931924611127,0,0.2556628439997439
83,720,FarLowWide,0.03,0.25,0.5,0.03162277660168378,0,0.6581199470001593
83,721,FarHighWide,0.5,0.25,0.03,0.009999999999999995,0,0.22437198499983424
83,722,ThreeLinesControl,0.0,0.0,0.1,0.025118864315095787,1,0.5263663209998413
83,723,Constant,0.1,0.1,0.1,0.01995262314968879,1,0.37128461900010734
83,724,Constant,0.1,0.1,0.1,0.015848931924611127,1,0.33764178699993863
83,725,Constant,0.1,0.1,0.1,0.012589254117941666,0,0.34376859699978013
83,726,FarLowWide,0.03,0.25,0.5,0.039810717055349706,0,0.2700613050001266
83,727,FarLowWide,0.03,0.25,0.5,0.050118723362727206,0,0.16445132200033186
83,728,FarLowNarrow,0.1,0.15,0.2,0.03981071705534971,0,0.28365943300013896
83,729,FarLowWide,0.03,0.25,0.5,0.0630957344480193,0,99
83,730,FarHighNarrow,0.2,0.15,0.1,0.03981071705534973,0,99
83,731,FarLowNarrow,0.1,0.15,0.2,0.05011872336272721,0,99
83,732,FarLowWide,0.03,0.25,0.5,0.07943282347242812,0,99
83,733,FarHighWide,0.5,0.25,0.03,0.012589254117941666,1,0.10822105500028556
83,734,FarHighWide_null,0.5,0.25,0.03,0.0630957344480193,0,99
83,735,FarLowNarrow,0.1,0.15,0.2,0.0630957344480193,1,0.3504106599998522
83,736,FarLowNarrow,0.1,0.15,0.2,0.050118723362727206,0,99
83,737,FarHighWide,0.5,0.25,0.03,0.009999999999999995,0,99
83,738,FarLowNarrow,0.1,0.15,0.2,0.0630957344480193,1,0.5997030919997997
83,739,FarHighWide,0.5,0.25,0.03,0.012589254117941666,1,0.25285095799972623
83,740,FarHighNarrow,0.2,0.15,0.1,0.050118723362727234,1,0.46706732699976783
83,741,ThreeLinesControl,0.0,0.0,0.1,0.019952623149688785,1,0.26568219899991163
83,742,FarLowWide_null,0.03,0.25,0.5,0.009999999999999995,0,99
83,743,FarLowWide,0.03,0.25,0.5,0.09999999999999998,0,0.1806318280000596
83,744,FarHighWide,0.5,0.25,0.03,0.009999999999999995,1,0.3803004950000286
83,745,ThreeLinesControl,0.0,0.0,0.1,0.015848931924611124,1,0.5779173320001973
83,746,FarLowNarrow,0.1,0.15,0.2,0.050118723362727206,1,0.2778100049999921
83,747,Constant,0.1,0.1,0.1,0.015848931924611127,0,99
83,748,FarHighWide,0.5,0.25,0.03,0.00794328234724281,0,0.35323920300015743
83,749,FarLowNarrow,0.1,0.15,0.2,0.039810717055349706,0,99
83,750,FarHighNarrow,0.2,0.15,0.1,0.03981071705534973,1,0.3860517599996456
83,751,FarHighNarrow,0.2,0.15,0.1,0.03162277660168379,1,0.352507587999753
83,752,ThreeLinesControl,0.0,0.0,0.1,0.012589254117941663,0,0.38825542699987636
83,753,FarLowWide,0.03,0.25,0.5,0.1,1,0.41899004499964576
83,754,FarHighWide,0.5,0.25,0.03,0.009999999999999995,1,0.2320684030000848
83,755,FarHighNarrow,0.2,0.15,0.1,0.025118864315095798,0,0.15835839999999735
83,756,ThreeLinesControl,0.0,0.0,0.1,0.015848931924611124,1,0.533185056000093
83,757,Constant,0.1,0.1,0.1,0.01995262314968879,0,99
83,758,FarHighWide,0.5,0.25,0.03,0.00794328234724281,1,0.3204088729999057
83,759,Constant,0.1,0.1,0.1,0.025118864315095794,0,0.2706828739997036
83,760,FarLowWide,0.03,0.25,0.5,0.07943282347242815,1,0.5255834849999701
83,761,FarLowNarrow,0.1,0.15,0.2,0.050118723362727206,1,0.2438045260000763
83,762,Constant,0.1,0.1,0.1,0.031622776601683784,1,0.3389480519999779
83,763,FarLowWide,0.03,0.25,0.5,0.06309573444801932,1,0.3095130679998874
83,764,FarLowNarrow_null,0.1,0.15,0.2,0.0630957344480193,1,0.2757464239998626
83,765,ThreeLinesControl,0.0,0.0,0.1,0.012589254117941663,0,0.3988416510001116
83,766,ThreeLinesControl_null,0.0,0.0,0.1,0.031622776601683784,1,0.23697079199973814
83,767,Constant,0.1,0.1,0.1,0.02511886431509579,1,0.36301563500001066
83,768,FarHighWide,0.5,0.25,0.03,0.0063095734448019285,1,0.39835397099977854
83,769,FarLowNarrow,0.1,0.15,0.2,0.039810717055349706,1,0.19636715400019966
83,770,FarHighWide,0.5,0.25,0.03,0.005011872336272719,0,0.31461569100019915
83,771,FarLowNarrow,0.1,0.15,0.2,0.03162277660168378,1,0.3365385690003677
83,772,FarHighNarrow,0.2,0.15,0.1,0.03162277660168379,1,0.3908134839998638
83,773,FarHighNarrow,0.2,0.15,0.1,0.025118864315095798,1,0.22831231999998636
83,774,FarHighWide,0.5,0.25,0.03,0.0063095734448019285,0,0.2911533279998366
83,775,FarHighWide,0.5,0.25,0.03,0.00794328234724281,0,0.3922172050001791
83,776,FarHighNarrow,0.2,0.15,0.1,0.019952623149688792,1,0.5265867349999098
83,777,FarLowWide,0.03,0.25,0.5,0.05011872336272722,1,0.45281627200029106
83,778,FarHighWide,0.5,0.25,0.03,0.009999999999999995,1,0.22773015699976895
83,779,FarLowWide,0.03,0.25,0.5,0.03981071705534971,1,0.19103834099996675
83,780,Constant,0.1,0.1,0.1,0.01995262314968879,1,0.11694542099985483
83,781,ThreeLinesControl,0.0,0.0,0.1,0.015848931924611124,0,99
83,782,ThreeLinesControl,0.0,0.0,0.1,0.019952623149688785,0,0.21429286700004013
83,783,FarLowNarrow,0.1,0.15,0.2,0.025118864315095787,0,99
83,784,FarLowNarrow,0.1,0.15,0.2,0.03162277660168378,1,0.22331692800025849
83,785,FarLowNarrow,0.1,0.15,0.2,0.025118864315095787,1,0.20569305100025304
83,786,FarLowNarrow,0.1,0.15,0.2,0.019952623149688785,1,0.27502349899987166
83,787,Constant,0.1,0.1,0.1,0.015848931924611127,1,0.05695722600012232
83,788,FarHighWide,0.5,0.25,0.03,0.00794328234724281,0,99
83,789,FarHighNarrow,0.2,0.15,0.1,0.01584893192461113,0,0.10136127699979625
83,790,FarHighNarrow,0.2,0.15,0.1,0.019952623149688792,0,0.21952763900026184
83,791,FarHighWide,0.5,0.25,0.03,0.009999999999999995,0,0.2733276769999975
83,792,FarHighNarrow_null,0.2,0.15,0.1,0.025118864315095794,1,0.214786622000247
83,793,FarLowNarrow,0.1,0.15,0.2,0.015848931924611124,0,0.2141194139999243
83,794,ThreeLinesControl,0.0,0.0,0.1,0.025118864315095787,0,99
83,795,FarHighNarrow,0.2,0.15,0.1,0.025118864315095798,1,0.18340311300016765
83,796,Constant,0.1,0.1,0.1,0.012589254117941666,0,0.19727379500000097
83,797,Constant,0.1,0.1,0.1,0.015848931924611127,0,0.2423001120000663
83,798,ThreeLinesControl,0.0,0.0,0.1,0.03162277660168378,0,0.3506791049999265
83,799,ThreeLinesControl,0.0,0.0,0.1,0.039810717055349706,0,0.2677335389998916
83,800,FarHighNarrow,0.2,0.15,0.1,0.019952623149688792,0,99
83,801,FarHighNarrow,0.2,0.15,0.1,0.025118864315095798,1,0.29435148200036565
83,802,FarLowNarrow_null,0.1,0.15,0.2,0.050118723362727206,1,0.3964247190001515
83,803,FarHighNarrow_null,0.2,0.15,0.1,0.01995262314968879,1,0.2500915040000109
83,804,FarLowNarrow,0.1,0.15,0.2,0.019952623149688785,0,0.16881466999984696
83,805,FarLowWide,0.03,0.25,0.5,0.031622776601683784,0,0.34273464700027034
83,806,FarLowWide_null,0.03,0.25,0.5,0.012589254117941666,1,0.38233572000035565
83,807,FarHighWide,0.5,0.25,0.03,0.012589254117941666,1,0.4990662909999628
83,808,ThreeLinesControl_null,0.0,0.0,0.1,0.02511886431509579,1,0.25643049700011034
83,809,ThreeLinesControl,0.0,0.0,0.1,0.050118723362727206,1,0.4862378939997143
83,810,FarHighWide,0.5,0.25,0.03,0.009999999999999995,0,0.6524774039999102
83,811,FarLowNarrow,0.1,0.15,0.2,0.025118864315095787,1,0.5117412859999604
83,812,Constant,0.1,0.1,0.1,0.01995262314968879,1,0.573840232999828
83,813,Constant,0.1,0.1,0.1,0.015848931924611127,1,0.4189807220000148
83,814,FarLowNarrow,0.1,0.15,0.2,0.019952623149688785,1,0.5110662449997108
83,815,Constant,0.1,0.1,0.1,0.012589254117941666,0,0.4362623170000006
83,816,FarLowWide_null,0.03,0.25,0.5,0.009999999999999995,1,0.24230311000019356
83,817,FarHighNarrow,0.2,0.15,0.1,0.019952623149688792,0,0.21552043599967874
83,818,FarHighWide_null,0.5,0.25,0.03,0.07943282347242812,1,0.18942815099990185
83,819,FarHighNarrow,0.2,0.15,0.1,0.025118864315095798,0,0.3237874270002976
83,820,FarLowNarrow,0.1,0.15,0.2,0.015848931924611124,0,0.34490368200022203
83,821,FarLowNarrow,0.1,0.15,0.2,0.019952623149688785,0,0.5191425769999114
83,822,FarLowNarrow,0.1,0.15,0.2,0.025118864315095787,0,99
83,823,Constant,0.1,0.1,0.1,0.015848931924611127,0,99
83,824,ThreeLinesControl,0.0,0.0,0.1,0.039810717055349706,0,99
83,825,FarHighWide,0.5,0.25,0.03,0.012589254117941666,0,99
83,826,Constant,0.1,0.1,0.1,0.01995262314968879,0,99
83,827,FarLowNarrow,0.1,0.15,0.2,0.03162277660168378,0,99
83,828,Constant,0.1,0.1,0.1,0.025118864315095794,0,99
83,829,ThreeLinesControl_null,0.0,0.0,0.1,0.01995262314968879,0,99
83,830,ThreeLinesControl,0.0,0.0,0.1,0.050118723362727206,0,99
83,831,ThreeLinesControl,0.0,0.0,0.1,0.0630957344480193,0,99
83,832,FarHighNarrow,0.2,0.15,0.1,0.03162277660168379,0,99
83,833,Constant,0.1,0.1,0.1,0.031622776601683784,0,99
83,834,FarLowWide,0.03,0.25,0.5,0.03981071705534971,0,99
83,835,FarLowWide,0.03,0.25,0.5,0.05011872336272721,0,99
83,836,FarLowWide_null,0.03,0.25,0.5,0.00794328234724281,0,99
83,837,FarLowWide,0.03,0.25,0.5,0.0630957344480193,0,99
83,838,ThreeLinesControl,0.0,0.0,0.1,0.07943282347242812,0,99
83,839,FarHighWide_null,0.5,0.25,0.03,0.0630957344480193,0,99
83,840,FarLowNarrow,0.1,0.15,0.2,0.039810717055349706,1,0.5919432340001549
83,841,FarHighWide,0.5,0.25,0.03,0.015848931924611127,1,0.292736074000004
83,842,FarHighWide_null,0.5,0.25,0.03,0.07943282347242812,1,0.2722962750003717
83,843,FarLowNarrow,0.1,0.15,0.2,0.03162277660168378,1,0.5980873910002629
83,844,FarHighWide_null,0.5,0.25,0.03,0.0630957344480193,0,0.6684130610001375
83,845,FarHighNarrow,0.2,0.15,0.1,0.03981071705534973,0,0.5134438380000574
83,846,ThreeLinesControl,0.0,0.0,0.1,0.09999999999999998,1,0.39953632400010974
83,847,FarLowWide,0.03,0.25,0.5,0.07943282347242812,1,0.2693041689999518
83,848,FarHighNarrow,0.2,0.15,0.1,0.050118723362727234,1,0.35585197499995047
83,849,Constant_null,0.1,0.1,0.1,0.03981071705534971,1,0.3218062149999241
83,850,Constant,0.1,0.1,0.1,0.03981071705534971,1,0.31281719999969937
83,851,ThreeLinesControl,0.0,0.0,0.1,0.07943282347242812,1,0.2878611619998992
83,852,FarHighWide,0.5,0.25,0.03,0.012589254117941666,1,0.3897060730000703
83,853,ThreeLinesControl,0.0,0.0,0.1,0.0630957344480193,1,0.4339055080004073
83,854,ThreeLinesControl,0.0,0.0,0.1,0.050118723362727206,1,0.2640272260000529
83,855,ThreeLinesControl,0.0,0.0,0.1,0.039810717055349706,1,0.32483171499961827
83,856,FarLowNarrow_null,0.1,0.15,0.2,0.039810717055349706,1,0.5370370010000443
83,857,FarLowNarrow,0.1,0.15,0.2,0.025118864315095787,1,0.39036526499967295
83,858,FarLowNarrow,0.1,0.15,0.2,0.019952623149688785,1,0.37843941200026165
83,859,FarHighNarrow,0.2,0.15,0.1,0.03981071705534973,1,0.7915912010003012
83,860,FarHighNarrow,0.2,0.15,0.1,0.03162277660168379,1,0.3179517670000678
83,861,ThreeLinesControl,0.0,0.0,0.1,0.03162277660168378,1,0.484143086000131
83,862,FarLowWide,0.03,0.25,0.5,0.0630957344480193,1,0.36138615799973195
83,863,ThreeLinesControl,0.0,0.0,0.1,0.025118864315095787,1,0.39938763800000743
83,864,FarLowNarrow,0.1,0.15,0.2,0.015848931924611124,1,0.429989124000258
83,865,FarHighNarrow,0.2,0.15,0.1,0.025118864315095798,1,0.28383331399982126
83,866,FarHighWide,0.5,0.25,0.03,0.009999999999999995,0,0.46590505099993607
83,867,ThreeLinesControl,0.0,0.0,0.1,0.019952623149688785,1,0.44924266699990767
83,868,FarHighWide_null,0.5,0.25,0.03,0.07943282347242812,1,0.6473211279999305
83,869,FarLowWide,0.03,0.25,0.5,0.050118723362727206,1,0.395170926999981
83,870,FarHighNarrow,0.2,0.15,0.1,0.019952623149688792,0,0.3281235019999258
83,871,ThreeLinesControl,0.0,0.0,0.1,0.015848931924611124,1,0.49429377699971155
83,872,FarHighNarrow,0.2,0.15,0.1,0.025118864315095798,1,0.3133857899997565
83,873,FarHighWide,0.5,0.25,0.03,0.012589254117941666,1,0.5436683630000516
83,874,FarLowNarrow,0.1,0.15,0.2,0.012589254117941663,1,0.22182705799968971
83,875,FarLowWide_null,0.03,0.25,0.5,0.009999999999999995,0,0.1526292110002032
83,876,FarHighWide,0.5,0.25,0.03,0.009999999999999995,0,0.1352312469998651
83,877,FarHighNarrow,0.2,0.15,0.1,0.019952623149688792,0,0.16521848200000022
83,878,Constant,0.1,0.1,0.1,0.031622776601683784,1,0.3794058980001864
83,879,ThreeLinesControl,0.0,0.0,0.1,0.012589254117941663,0,0.34556129700013116
83,880,FarLowWide,0.03,0.25,0.5,0.039810717055349706,1,0.25568212300004234
83,881,FarHighNarrow,0.2,0.15,0.1,0.025118864315095798,1,0.5334615519996078
83,882,FarLowNarrow_null,0.1,0.15,0.2,0.03162277660168378,1,0.3469847399996979
83,883,FarLowNarrow,0.1,0.15,0.2,0.009999999999999992,0,0.13800675499987847
83,884,FarHighNarrow,0.2,0.15,0.1,0.019952623149688792,0,0.15265488800014282
83,885,FarHighNarrow,0.2,0.15,0.1,0.025118864315095798,0,0.13152023800012103
83,886,FarLowNarrow,0.1,0.15,0.2,0.012589254117941663,0,0.009535413999856246
83,887,FarLowNarrow,0.1,0.15,0.2,0.015848931924611124,0,0.1277436850000413
83,888,Constant,0.1,0.1,0.1,0.02511886431509579,0,0.1628046099999665
83,889,FarHighNarrow,0.2,0.15,0.1,0.03162277660168379,0,0.08923833800008651
83,890,FarLowNarrow_null,0.1,0.15,0.2,0.025118864315095787,1,0.39910663299997395
83,891,FarHighWide,0.5,0.25,0.03,0.012589254117941666,0,0.13024307400019097
83,892,FarLowWide,0.03,0.25,0.5,0.03162277660168378,0,0.09551548300032664
83,893,FarLowWide,0.03,0.25,0.5,0.039810717055349706,0,0.19765438200010976
83,894,FarHighWide,0.5,0.25,0.03,0.015848931924611127,1,0.1318464060000224
83,895,FarLowWide_null,0.03,0.25,0.5,0.012589254117941666,1,0.17793066800004453
83,896,FarLowNarrow,0.1,0.15,0.2,0.019952623149688785,0,0.18408632899991062
83,897,FarHighNarrow,0.2,0.15,0.1,0.03981071705534973,0,0.08620497700030683
83,898,FarHighNarrow,0.2,0.15,0.1,0.050118723362727234,1,0.08452884999996968
83,899,ThreeLinesControl,0.0,0.0,0.1,0.015848931924611124,1,0.2986712570000236
83,900,FarHighWide_null,0.5,0.25,0.03,0.0630957344480193,1,0.15313774500009458
83,901,FarHighNarrow,0.2,0.15,0.1,0.03981071705534973,1,0.2551675780000551
83,902,FarHighNarrow,0.2,0.15,0.1,0.03162277660168379,1,0.19505304499989506
83,903,FarLowNarrow,0.1,0.15,0.2,0.025118864315095787,0,99
83,904,FarHighNarrow,0.2,0.15,0.1,0.025118864315095798,1,0.28444127400007346
83,905,FarHighWide,0.5,0.25,0.03,0.012589254117941666,0,99
83,906,ThreeLinesControl,0.0,0.0,0.1,0.012589254117941663,1,0.11164280999992116
83,907,FarHighWide,0.5,0.25,0.03,0.015848931924611127,0,99
83,908,FarLowWide,0.03,0.25,0.5,0.050118723362727206,1,0.321681966000142
83,909,FarHighNarrow,0.2,0.15,0.1,0.019952623149688792,0,0.3679867149999154
83,910,FarHighWide_null,0.5,0.25,0.03,0.050118723362727206,0,0.2861558810000133
83,911,ThreeLinesControl_null,0.0,0.0,0.1,0.025118864315095794,1,0.33202211299976625
83,912,FarHighNarrow,0.2,0.15,0.1,0.025118864315095798,0,0.17833530300003986
83,913,FarLowNarrow,0.1,0.15,0.2,0.03162277660168378,1,0.2717524270001377
83,914,FarLowNarrow,0.1,0.15,0.2,0.025118864315095787,1,0.28572920999977214
83,915,Constant,0.1,0.1,0.1,0.031622776601683784,1,0.24303383899996334
83,916,Constant,0.1,0.1,0.1,0.02511886431509579,1,0.23410815900024318
83,917,FarLowNarrow,0.1,0.15,0.2,0.019952623149688785,1,0.32836727399990195
83,918,Constant,0.1,0.1,0.1,0.01995262314968879,1,0.5165508980003324
83,919,Constant,0.1,0.1,0.1,0.015848931924611127,1,0.2094781900000271
83,920,ThreeLinesControl_null,0.0,0.0,0.1,0.01995262314968879,0,99
83,921,FarLowNarrow,0.1,0.15,0.2,0.015848931924611124,0,99
83,922,Constant,0.1,0.1,0.1,0.012589254117941666,0,0.2566429359999347
83,923,FarLowNarrow,0.1,0.15,0.2,0.019952623149688785,0,0.22150808700007474
83,924,FarHighNarrow,0.2,0.15,0.1,0.03162277660168379,0,0.1712605729999268
83,925,FarLowWide,0.03,0.25,0.5,0.039810717055349706,0,0.2014673280000352
83,926,ThreeLinesControl,0.0,0.0,0.1,0.009999999999999992,1,0.21554322800011505
83,927,FarHighNarrow,0.2,0.15,0.1,0.03981071705534973,1,0.4456936679998762
83,928,ThreeLinesControl,0.0,0.0,0.1,0.007943282347242809,0,0.36277160899999217
83,929,ThreeLinesControl,0.0,0.0,0.1,0.009999999999999993,0,0.21688844600021184
83,930,FarLowWide,0.03,0.25,0.5,0.050118723362727206,0,0.2482501700001194
83,931,FarLowNarrow,0.1,0.15,0.2,0.025118864315095787,0,0.2454231830001845
83,932,FarHighWide,0.5,0.25,0.03,0.01995262314968879,0,0.2035619539997242
83,933,ThreeLinesControl,0.0,0.0,0.1,0.012589254117941664,0,0.2753714210002727
83,934,FarLowWide,0.03,0.25,0.5,0.0630957344480193,0,99
83,935,ThreeLinesControl_null,0.0,0.0,0.1,0.025118864315095794,1,0.3635149110000384
83,936,FarHighWide,0.5,0.25,0.03,0.025118864315095794,1,0.3779911980000179
83,937,Constant,0.1,0.1,0.1,0.015848931924611127,0,0.3331408140002168
83,938,FarHighWide,0.5,0.25,0.03,0.01995262314968879,0,0.23466822999989745
83,939,ThreeLinesControl,0.0,0.0,0.1,0.015848931924611127,0,0.3273842799999329
83,940,ThreeLinesControl,0.0,0.0,0.1,0.01995262314968879,0,0.24568059700004596
83,941,ThreeLinesControl,0.0,0.0,0.1,0.025118864315095794,0,0.2509086439999919
83,942,ThreeLinesControl_null,0.0,0.0,0.1,0.01995262314968879,1,0.22533877299974847
83,943,ThreeLinesControl,0.0,0.0,0.1,0.031622776601683784,0,0.1830485979999139
83,944,FarLowWide,0.03,0.25,0.5,0.07943282347242812,1,0.4372676739999406
83,945,ThreeLinesControl,0.0,0.0,0.1,0.03981071705534971,0,0.332923400999789
83,946,ThreeLinesControl_null,0.0,0.0,0.1,0.015848931924611127,0,0.1854606669999157
83,947,FarLowWide,0.03,0.25,0.5,0.0630957344480193,0,99
83,948,ThreeLinesControl_null,0.0,0.0,0.1,0.01995262314968879,1,0.27693605600006777
83,949,ThreeLinesControl,0.0,0.0,0.1,0.05011872336272721,0,0.23503708799989909
83,950,FarLowNarrow,0.1,0.15,0.2,0.03162277660168378,0,99
83,951,FarHighNarrow,0.2,0.15,0.1,0.03162277660168379,0,99
83,952,FarLowNarrow,0.1,0.15,0.2,0.039810717055349706,0,99
83,953,FarHighNarrow,0.2,0.15,0.1,0.03981071705534973,1,0.17315832099984618
83,954,FarHighWide,0.5,0.25,0.03,0.025118864315095794,0,99
83,955,FarLowWide,0.03,0.25,0.5,0.07943282347242812,0,99
83,956,FarLowNarrow,0.1,0.15,0.2,0.050118723362727206,1,0.18286556000020937
83,957,Constant,0.1,0.1,0.1,0.01995262314968879,0,99
83,958,ThreeLinesControl,0.0,0.0,0.1,0.0630957344480193,1,0.4022530089996508
83,959,FarHighWide,0.5,0.25,0.03,0.031622776601683784,0,99
83,960,FarLowNarrow,0.1,0.15,0.2,0.039810717055349706,1,0.6735858720003307
83,961,ThreeLinesControl,0.0,0.0,0.1,0.050118723362727206,1,0.3358118899996043
83,962,ThreeLinesControl,0.0,0.0,0.1,0.039810717055349706,1,0.3589505810000446
83,963,FarHighNarrow,0.2,0.15,0.1,0.03162277660168379,1,0.23360006600023553
83,964,ThreeLinesControl,0.0,0.0,0.1,0.03162277660168378,1,0.2238088469998729
83,965,Constant,0.1,0.1,0.1,0.025118864315095794,1,0.35780753699964407
83,966,ThreeLinesControl,0.0,0.0,0.1,0.025118864315095787,1,0.24107601000014256
83,967,Constant,0.1,0.1,0.1,0.01995262314968879,1,0.2471103069997298
83,968,FarHighNarrow,0.2,0.15,0.1,0.025118864315095798,1,0.26041334199999255
83,969,ThreeLinesControl,0.0,0.0,0.1,0.019952623149688785,1,0.40051347999997233
83,970,FarLowNarrow,0.1,0.15,0.2,0.03162277660168378,1,0.34927885400020386
83,971,FarLowNarrow,0.1,0.15,0.2,0.025118864315095787,0,0.27580075400010173
83,972,FarLowWide,0.03,0.25,0.5,0.09999999999999998,1,0.46488919800003714
83,973,Constant,0.1,0.1,0.1,0.015848931924611127,1,0.2066816269998526
83,974,FarLowNarrow,0.1,0.15,0.2,0.03162277660168378,1,0.28550763800012646
83,975,FarHighNarrow,0.2,0.15,0.1,0.019952623149688792,1,0.21951983500002825
83,976,Constant,0.1,0.1,0.1,0.012589254117941666,1,0.2655624260000877
83,977,FarHighWide,0.5,0.25,0.03,0.03981071705534971,1,0.23968914699980814
83,978,FarHighNarrow,0.2,0.15,0.1,0.01584893192461113,1,0.2939212150004096
83,979,ThreeLinesControl,0.0,0.0,0.1,0.015848931924611124,1,0.10914046700054314
83,980,FarLowWide,0.03,0.25,0.5,0.07943282347242812,1,0.14483650700003636
83,981,FarLowNarrow,0.1,0.15,0.2,0.025118864315095787,0,0.19104567100021086
83,982,FarLowWide,0.03,0.25,0.5,0.0630957344480193,1,0.35450374300035037
83,983,FarHighNarrow,0.2,0.15,0.1,0.012589254117941668,1,0.22452186600003188
83,984,FarHighNarrow,0.2,0.15,0.1,0.009999999999999997,1,0.2066956440003196
83,985,FarLowWide,0.03,0.25,0.5,0.050118723362727206,0,99
83,986,FarLowWide,0.03,0.25,0.5,0.0630957344480193,1,0.28810660199997074
83,987,FarHighNarrow,0.2,0.15,0.1,0.007943282347242812,0,0.22202294199996686
83,988,FarHighNarrow,0.2,0.15,0.1,0.009999999999999997,0,0.33916140499968606
83,989,Constant,0.1,0.1,0.1,0.009999999999999995,0,0.2893905509999968
83,990,ThreeLinesControl,0.0,0.0,0.1,0.012589254117941663,0,0.31891779600027803
83,991,FarLowNarrow,0.1,0.15,0.2,0.03162277660168378,0,0.32578648299931956
83,992,FarLowWide,0.03,0.25,0.5,0.050118723362727206,1,0.28382983800020156
83,993,Constant,0.1,0.1,0.1,0.012589254117941666,0,0.13822893199994724
83,994,FarLowWide,0.03,0.25,0.5,0.039810717055349706,1,0.38431616599973495
83,995,FarHighWide,0.5,0.25,0.03,0.031622776601683784,0,0.1754862289999437
83,996,ThreeLinesControl_null,0.0,0.0,0.1,0.015848931924611127,1,0.4434044879999419
83,997,FarLowWide,0.03,0.25,0.5,0.03162277660168378,0,0.36156312200000684
83,998,FarLowNarrow,0.1,0.15,0.2,0.039810717055349706,1,0.34010965099969326
83,999,Constant,0.1,0.1,0.1,0.015848931924611127,1,0.3058415049999894
83,1000,ThreeLinesControl,0.0,0.0,0.1,0.015848931924611124,0,0.2970105269996566
83,1001,FarHighNarrow,0.2,0.15,0.1,0.012589254117941668,0,0.2510603069995341
83,1002,ThreeLinesControl,0.0,0.0,0.1,0.019952623149688785,1,0.3051386920005825
83,1003,FarLowNarrow,0.1,0.15,0.2,0.03162277660168378,0,0.23903537499973027
83,1004,Constant,0.1,0.1,0.1,0.012589254117941666,0,0.37360145399998146
83,1005,FarLowWide,0.03,0.25,0.5,0.039810717055349706,0,1.0189261899995472
83,1006,FarHighWide,0.5,0.25,0.03,0.03981071705534971,1,0.37644609899962234
83,1007,ThreeLinesControl,0.0,0.0,0.1,0.015848931924611124,0,0.399145370000042
83,1008,Constant,0.1,0.1,0.1,0.015848931924611127,0,0.4372918320004828
83,1009,ThreeLinesControl,0.0,0.0,0.1,0.019952623149688785,0,0.2356941480002206
83,1010,ThreeLinesControl,0.0,0.0,0.1,0.025118864315095787,0,0.3065658409996104
83,1011,FarLowNarrow,0.1,0.15,0.2,0.039810717055349706,0,0.2728252729993983
83,1012,FarLowWide,0.03,0.25,0.5,0.050118723362727206,1,0.20452659399961703
83,1013,FarHighNarrow,0.2,0.15,0.1,0.01584893192461113,1,0.22699409600045328
83,1014,FarLowNarrow,0.1,0.15,0.2,0.050118723362727206,1,0.1211467499997525
83,1015,FarLowNarrow,0.1,0.15,0.2,0.039810717055349706,1,0.17231793700011622
83,1016,ThreeLinesControl_null,0.0,0.0,0.1,0.012589254117941666,0,0.2422774130000107
83,1017,ThreeLinesControl,0.0,0.0,0.1,0.03162277660168378,1,0.36549192999973457
83,1018,ThreeLinesControl,0.0,0.0,0.1,0.025118864315095787,0,99
83,1019,FarLowWide,0.03,0.25,0.5,0.039810717055349706,1,0.5059867820000363
83,1020,FarLowWide,0.03,0.25,0.5,0.03162277660168378,1,0.3268443489996571
83,1021,FarLowNarrow,0.1,0.15,0.2,0.03162277660168378,1,0.27713630300058867
83,1022,ThreeLinesControl,0.0,0.0,0.1,0.03162277660168378,1,0.1474368670005788
83,1023,FarLowNarrow,0.1,0.15,0.2,0.025118864315095787,1,0.32150391199957085
83,1024,Constant,0.1,0.1,0.1,0.01995262314968879,1,0.19957920600063517
83,1025,FarLowNarrow,0.1,0.15,0.2,0.019952623149688785,0,0.5743613780005035
83,1026,FarHighWide,0.5,0.25,0.03,0.031622776601683784,1,0.4190663029994539
83,1027,FarLowNarrow,0.1,0.15,0.2,0.025118864315095787,1,0.14522241099984967
83,1028,ThreeLinesControl,0.0,0.0,0.1,0.025118864315095787,0,99
83,1029,Constant,0.1,0.1,0.1,0.015848931924611127,1,0.5154988720005349
83,1030,FarHighNarrow,0.2,0.15,0.1,0.012589254117941668,0,0.369540335000238
83,1031,ThreeLinesControl,0.0,0.0,0.1,0.03162277660168378,1,0.5331986640003379
83,1032,FarHighWide,0.5,0.25,0.03,0.02511886431509579,0,0.40286029599974427
83,1033,FarLowWide,0.03,0.25,0.5,0.025118864315095787,0,0.25688540499959345
83,1034,FarHighNarrow,0.2,0.15,0.1,0.01584893192461113,1,0.46797793000041565
83,1035,FarLowNarrow,0.1,0.15,0.2,0.019952623149688785,1,0.2665778489999866
83,1036,FarHighWide,0.5,0.25,0.03,0.031622776601683784,1,0.3683043569999427
83,1037,Constant,0.1,0.1,0.1,0.012589254117941666,0,99
83,1038,FarLowNarrow,0.1,0.15,0.2,0.015848931924611124,0,0.45995380299973476
83,1039,FarHighNarrow,0.2,0.15,0.1,0.012589254117941668,0,99
83,1040,ThreeLinesControl,0.0,0.0,0.1,0.025118864315095787,0,0.3600238059998446
83,1041,ThreeLinesControl_null,0.0,0.0,0.1,0.015848931924611127,1,0.5102190080006039
83,1042,ThreeLinesControl,0.0,0.0,0.1,0.03162277660168378,1,0.37285769899972365
83,1043,FarLowWide,0.03,0.25,0.5,0.03162277660168378,1,0.30753054799970414
83,1044,FarHighWide,0.5,0.25,0.03,0.02511886431509579,1,0.21461829300005775
83,1045,FarLowNarrow,0.1,0.15,0.2,0.019952623149688785,0,99
83,1046,FarHighNarrow,0.2,0.15,0.1,0.01584893192461113,1,0.2509321170000476
83,1047,Constant,0.1,0.1,0.1,0.015848931924611127,0,99
83,1048,ThreeLinesControl,0.0,0.0,0.1,0.025118864315095787,1,0.27632492600059777
83,1049,FarLowWide,0.03,0.25,0.5,0.025118864315095787,1,0.20984658900033537
83,1050,ThreeLinesControl,0.0,0.0,0.1,0.019952623149688785,1,0.1735007580000456
83,1051,FarLowWide,0.03,0.25,0.5,0.019952623149688785,0,0.2748601269995561
83,1052,FarHighWide,0.5,0.25,0.03,0.01995262314968879,1,0.35277480900003866
83,1053,FarHighNarrow,0.2,0.15,0.1,0.012589254117941668,1,0.11876217200006067
83,1054,ThreeLinesControl,0.0,0.0,0.1,0.015848931924611124,1,0.2126659470004597
83,1055,FarLowNarrow,0.1,0.15,0.2,0.025118864315095787,0,99
83,1056,FarHighNarrow,0.2,0.15,0.1,0.009999999999999997,0,0.19329703499988682
83,1057,FarLowWide,0.03,0.25,0.5,0.025118864315095787,0,0.23149549800018576
83,1058,FarHighWide,0.5,0.25,0.03,0.015848931924611127,1,0.18152855500011356
83,1059,FarHighNarrow,0.2,0.15,0.1,0.012589254117941668,0,0.16414837499996793
83,1060,Constant,0.1,0.1,0.1,0.01995262314968879,0,0.010137080999811587
83,1061,ThreeLinesControl_null,0.0,0.0,0.1,0.012589254117941666,0,0.038089024999862886
83,1062,FarHighWide,0.5,0.25,0.03,0.012589254117941666,1,0.555215259999386
83,1063,FarLowWide,0.03,0.25,0.5,0.03162277660168378,1,0.6701330440000675
83,1064,FarLowWide,0.03,0.25,0.5,0.025118864315095787,0,99
83,1065,ThreeLinesControl,0.0,0.0,0.1,0.012589254117941663,0,99
83,1066,FarLowNarrow,0.1,0.15,0.2,0.03162277660168378,0,0.21479832000022725
83,1067,ThreeLinesControl,0.0,0.0,0.1,0.015848931924611124,0,0.2689013930003057
83,1068,FarHighNarrow,0.2,0.15,0.1,0.01584893192461113,0,0.6180715539994708
83,1069,Constant,0.1,0.1,0.1,0.025118864315095794,0,0.2641761889999543
83,1070,FarHighWide,0.5,0.25,0.03,0.009999999999999995,0,0.2063645730004282
83,1071,FarHighWide,0.5,0.25,0.03,0.012589254117941666,0,0.23644348700054252
83,1072,ThreeLinesControl,0.0,0.0,0.1,0.019952623149688785,0,0.21080773800076713
83,1073,Constant,0.1,0.1,0.1,0.031622776601683784,0,0.39279983600044943
83,1074,Constant,0.1,0.1,0.1,0.03981071705534971,0,0.07956677899983333
83,1075,Constant,0.1,0.1,0.1,0.05011872336272721,1,0.4377731579997999
83,1076,FarHighNarrow,0.2,0.15,0.1,0.019952623149688792,1,0.26861372200073674
83,1077,FarLowNarrow,0.1,0.15,0.2,0.039810717055349706,1,0.23148073499942257
83,1078,FarHighNarrow,0.2,0.15,0.1,0.01584893192461113,1,0.3016942799995377
83,1079,FarHighNarrow,0.2,0.15,0.1,0.012589254117941668,1,0.29170695199991314
83,1080,FarHighWide,0.5,0.25,0.03,0.015848931924611127,0,0.4794083619999583
83,1081,FarLowNarrow,0.1,0.15,0.2,0.03162277660168378,0,0.325765765000142
83,1082,Constant,0.1,0.1,0.1,0.03981071705534971,0,0.26670171699970524
83,1083,FarLowWide,0.03,0.25,0.5,0.03162277660168378,1,0.2969021779999821
83,1084,FarHighNarrow,0.2,0.15,0.1,0.009999999999999997,1,0.17656391600030474
83,1085,Constant,0.1,0.1,0.1,0.05011872336272721,0,0.14538182400065125
83,1086,ThreeLinesControl,0.0,0.0,0.1,0.025118864315095787,1,0.22349817699978303
83,1087,ThreeLinesControl,0.0,0.0,0.1,0.019952623149688785,0,0.2506663659996775
83,1088,Constant,0.1,0.1,0.1,0.0630957344480193,1,0.3926525810002204
83,1089,FarLowWide,0.03,0.25,0.5,0.025118864315095787,0,0.3348875770006998
83,1090,ThreeLinesControl,0.0,0.0,0.1,0.025118864315095787,0,0.38697363500068604
83,1091,FarHighWide,0.5,0.25,0.03,0.01995262314968879,0,99
83,1092,FarLowNarrow,0.1,0.15,0.2,0.039810717055349706,1,0.2234407399992051
83,1093,FarLowNarrow,0.1,0.15,0.2,0.03162277660168378,0,99
83,1094,ThreeLinesControl,0.0,0.0,0.1,0.03162277660168378,0,99
83,1095,FarHighWide,0.5,0.25,0.03,0.025118864315095794,0,99
83,1096,FarHighNarrow,0.2,0.15,0.1,0.007943282347242812,0,99
83,1097,FarHighNarrow,0.2,0.15,0.1,0.009999999999999997,0,99
83,1098,FarHighNarrow,0.2,0.15,0.1,0.012589254117941668,0,99
83,1099,Constant,0.1,0.1,0.1,0.050118723362727206,0,0.1460352399999465
83,1100,ThreeLinesControl,0.0,0.0,0.1,0.039810717055349706,1,0.14458018400000583
83,1101,Constant,0.1,0.1,0.1,0.0630957344480193,0,99
83,1102,FarHighNarrow,0.2,0.15,0.1,0.01584893192461113,1,0.28090907400019205
83,1103,FarHighNarrow,0.2,0.15,0.1,0.012589254117941668,0,99
83,1104,FarLowWide,0.03,0.25,0.5,0.03162277660168378,0,99
83,1105,FarLowWide,0.03,0.25,0.5,0.039810717055349706,0,99
83,1106,FarHighNarrow,0.2,0.15,0.1,0.01584893192461113,1,0.4296078340003078
83,1107,ThreeLinesControl,0.0,0.0,0.1,0.03162277660168378,1,0.6195879249999052
83,1108,FarHighNarrow,0.2,0.15,0.1,0.012589254117941668,0,99
83,1109,FarLowWide,0.03,0.25,0.5,0.050118723362727206,0,0.21466227100063406
83,1110,FarHighWide,0.5,0.25,0.03,0.031622776601683784,0,99
83,1111,Constant,0.1,0.1,0.1,0.07943282347242812,1,0.7230770440000924
83,1112,FarHighWide,0.5,0.25,0.03,0.03981071705534971,0,99
83,1113,FarLowNarrow,0.1,0.15,0.2,0.039810717055349706,0,99
83,1114,FarHighNarrow,0.2,0.15,0.1,0.01584893192461113,1,0.22156934900067426
83,1115,ThreeLinesControl,0.0,0.0,0.1,0.025118864315095787,1,0.18669016399962857
83,1116,FarHighWide,0.5,0.25,0.03,0.05011872336272721,1,0.15283583400014322
83,1117,Constant,0.1,0.1,0.1,0.0630957344480193,1,0.18797924399950716
83,1118,FarLowNarrow,0.1,0.15,0.2,0.050118723362727206,1,0.15400686699922517
83,1119,ThreeLinesControl,0.0,0.0,0.1,0.019952623149688785,0,99
83,1120,FarHighWide,0.5,0.25,0.03,0.03981071705534971,0,0.21954181699948094
83,1121,FarHighNarrow,0.2,0.15,0.1,0.012589254117941668,0,0.30575711900019087
83,1122,FarLowNarrow,0.1,0.15,0.2,0.039810717055349706,1,0.1988548039998932
83,1123,FarHighWide,0.5,0.25,0.03,0.05011872336272721,0,0.23599819899936847
83,1124,FarLowWide,0.03,0.25,0.5,0.0630957344480193,1,0.37121360800028924
83,1125,Constant,0.1,0.1,0.1,0.050118723362727206,1,0.25599784899986844
83,1126,FarLowNarrow,0.1,0.15,0.2,0.03162277660168378,1,0.3263706130001083
83,1127,ThreeLinesControl,0.0,0.0,0.1,0.025118864315095787,1,0.2605475900008969
83,1128,FarHighWide,0.5,0.25,0.03,0.0630957344480193,0,99
83,1129,FarLowWide,0.03,0.25,0.5,0.050118723362727206,0,99
83,1130,Constant,0.1,0.1,0.1,0.039810717055349706,0,99
83,1131,FarLowWide,0.03,0.25,0.5,0.0630957344480193,1,0.4456500100004632
83,1132,ThreeLinesControl,0.0,0.0,0.1,0.019952623149688785,1,0.41107132700017246
83,1133,ThreeLinesControl,0.0,0.0,0.1,0.015848931924611124,1,0.27845642099964607
83,1134,ThreeLinesControl,0.0,0.0,0.1,0.012589254117941663,0,99
83,1135,FarLowNarrow,0.1,0.15,0.2,0.025118864315095787,1,0.1057792409992544
83,1136,FarLowWide,0.03,0.25,0.5,0.050118723362727206,0,99
83,1137,FarLowNarrow,0.1,0.15,0.2,0.019952623149688785,1,0.44297589599955245
83,1138,Constant,0.1,0.1,0.1,0.050118723362727206,0,99
83,1139,FarHighWide,0.5,0.25,0.03,0.07943282347242812,1,0.04635482400044566
83,1140,Constant,0.1,0.1,0.1,0.0630957344480193,1,0.3797753290000401
83,1141,ThreeLinesControl,0.0,0.0,0.1,0.015848931924611124,1,0.15348030299992388
83,1142,FarLowWide,0.03,0.25,0.5,0.0630957344480193,0,99
83,1143,FarLowWide,0.03,0.25,0.5,0.07943282347242812,0,99
83,1144,ThreeLinesControl,0.0,0.0,0.1,0.012589254117941663,1,0.13925657300023886
83,1145,Constant,0.1,0.1,0.1,0.050118723362727206,1,0.2903467960004491
83,1146,ThreeLinesControl,0.0,0.0,0.1,0.009999999999999992,1,0.11355705499954638
83,1147,Constant,0.1,0.1,0.1,0.039810717055349706,1,0.25352208000003884
83,1148,Constant,0.1,0.1,0.1,0.03162277660168378,0,99
83,1149,FarLowWide,0.03,0.25,0.5,0.09999999999999998,1,0.07880212200052483
83,1150,FarLowWide,0.03,0.25,0.5,0.07943282347242812,1,0.12478230299984716
83,1151,FarLowNarrow,0.1,0.15,0.2,0.015848931924611124,1,0.17007655199995497
83,1152,Constant,0.1,0.1,0.1,0.039810717055349706,1,0.20629509500031418
83,1153,FarHighWide,0.5,0.25,0.03,0.0630957344480193,1,0.16341034899960505
83,1154,FarHighWide,0.5,0.25,0.03,0.050118723362727206,1,0.16940972599968518
83,1155,FarLowWide,0.03,0.25,0.5,0.0630957344480193,0,99
83,1156,ThreeLinesControl,0.0,0.0,0.1,0.007943282347242809,0,99
83,1157,Constant,0.1,0.1,0.1,0.03162277660168378,0,99
83,1158,FarLowWide,0.03,0.25,0.5,0.07943282347242812,1,0.23329124599968054
83,1159,FarHighWide,0.5,0.25,0.03,0.039810717055349706,0,99
83,1160,FarLowNarrow,0.1,0.15,0.2,0.012589254117941663,0,0.37353463800081954
83,1161,FarHighWide,0.5,0.25,0.03,0.050118723362727206,1,0.32512822300031985
83,1162,Constant,0.1,0.1,0.1,0.039810717055349706,1,0.29109849900032714
83,1163,ThreeLinesControl,0.0,0.0,0.1,0.009999999999999993,0,0.34267717500006256
83,1164,FarLowWide,0.03,0.25,0.5,0.0630957344480193,1,0.20506194300014613
83,1165,FarLowWide,0.03,0.25,0.5,0.050118723362727206,1,0.419019943999956
83,1166,FarLowNarrow,0.1,0.15,0.2,0.015848931924611124,1,0.08624439200048073
83,1167,FarLowNarrow,0.1,0.15,0.2,0.012589254117941663,0,0.164519996999843
83,1168,Constant,0.1,0.1,0.1,0.03162277660168378,1,0.31956351500048186
83,1169,Constant,0.1,0.1,0.1,0.025118864315095787,1,0.16564586699951178
83,1170,FarLowNarrow,0.1,0.15,0.2,0.015848931924611124,1,0.1560359770001014
83,1171,Constant,0.1,0.1,0.1,0.019952623149688785,0,0.36099043099966366
83,1172,FarLowNarrow,0.1,0.15,0.2,0.012589254117941663,0,0.25522012100009306
83,1173,Constant,0.1,0.1,0.1,0.025118864315095787,0,0.2935543189996679
83,1174,FarLowWide,0.03,0.25,0.5,0.039810717055349706,0,0.24358423600006063
83,1175,Constant,0.1,0.1,0.1,0.03162277660168378,0,0.17762171200047305
83,1176,FarLowWide,0.03,0.25,0.5,0.050118723362727206,0,0.19863265099957061
83,1177,Constant,0.1,0.1,0.1,0.039810717055349706,0,0.24626631199953408
83,1178,FarLowWide,0.03,0.25,0.5,0.0630957344480193,0,0.06030483099948469
83,1179,FarLowWide,0.03,0.25,0.5,0.07943282347242812,1,0.2002543759999753
83,1180,Constant,0.1,0.1,0.1,0.050118723362727206,0,99
83,1181,FarLowWide,0.03,0.25,0.5,0.0630957344480193,0,0.16462587699970754
83,1182,FarLowNarrow,0.1,0.15,0.2,0.015848931924611124,1,0.15973507699982292
83,1183,FarLowNarrow,0.1,0.15,0.2,0.012589254117941663,0,0.48602241899970977
83,1184,FarLowNarrow,0.1,0.15,0.2,0.015848931924611124,0,0.21202383800027746
83,1185,Constant,0.1,0.1,0.1,0.0630957344480193,0,0.20611154700054612
83,1186,Constant,0.1,0.1,0.1,0.07943282347242812,0,99
83,1187,FarLowNarrow,0.1,0.15,0.2,0.019952623149688785,0,99
83,1188,FarLowWide,0.03,0.25,0.5,0.07943282347242812,1,0.22473357699982444
83,1189,FarLowNarrow,0.1,0.15,0.2,0.025118864315095787,0,99
83,1190,FarLowNarrow,0.1,0.15,0.2,0.03162277660168378,1,0.24381628399987676
83,1191,FarLowWide,0.03,0.25,0.5,0.0630957344480193,0,99
83,1192,FarLowWide,0.03,0.25,0.5,0.07943282347242812,0,99
83,1193,FarLowWide,0.03,0.25,0.5,0.09999999999999998,1,0.2467017320004743
83,1194,Constant,0.1,0.1,0.1,0.09999999999999998,1,0.5978566560006584
83,1195,Constant,0.1,0.1,0.1,0.07943282347242812,0,99
83,1196,Constant,0.1,0.1,0.1,0.09999999999999998,0,99
83,1197,Constant,0.1,0.1,0.1,0.1,0,99
83,1198,Constant,0.1,0.1,0.1,0.1,0,99
83,1199,Constant,0.1,0.1,0.1,0.1,0,99
