Participant_Number,Trial_Number,Condition,FCfar,FCmed,FCclose,Target_Contrast,Correct_Response,Reaction_Time
90,0,FarHighNarrow,0.2,0.15,0.1,0.1,1,0.8849927969995406
90,1,FarHighNarrow,0.2,0.15,0.1,0.07943282347242815,1,0.7231502260001434
90,2,FarHighWide,0.5,0.25,0.03,0.1,1,0.5520879069999864
90,3,FarLowNarrow_null,0.1,0.15,0.2,0.1,1,0.446642711000095
90,4,FarLowNarrow,0.1,0.15,0.2,0.1,1,0.44466062799983774
90,5,FarLowWide,0.03,0.25,0.5,0.1,1,0.33800556200003484
90,6,FarLowNarrow,0.1,0.15,0.2,0.07943282347242815,1,0.5998243049998564
90,7,Constant,0.1,0.1,0.1,0.1,1,0.590466094000476
90,8,FarLowWide,0.03,0.25,0.5,0.07943282347242815,1,0.6148894489997474
90,9,ThreeLinesControl,0.0,0.0,0.1,0.1,1,0.6380255329995634
90,10,Constant,0.1,0.1,0.1,0.07943282347242815,1,0.7127032770004007
90,11,ThreeLinesControl,0.0,0.0,0.1,0.07943282347242815,1,0.6795653100007257
90,12,FarHighNarrow,0.2,0.15,0.1,0.06309573444801932,1,0.6778223209994394
90,13,FarHighWide,0.5,0.25,0.03,0.07943282347242815,1,1.1208523459999924
90,14,Constant,0.1,0.1,0.1,0.06309573444801932,1,0.7170998729998246
90,15,Constant,0.1,0.1,0.1,0.05011872336272722,1,0.8720835000003717
90,16,FarHighWide,0.5,0.25,0.03,0.06309573444801932,1,0.6943340640000315
90,17,FarHighNarrow,0.2,0.15,0.1,0.05011872336272722,1,0.7166078949994699
90,18,Constant,0.1,0.1,0.1,0.03981071705534971,1,0.7938284720003139
90,19,FarHighNarrow,0.2,0.15,0.1,0.03981071705534971,1,0.9838441430001694
90,20,FarHighWide,0.5,0.25,0.03,0.05011872336272722,1,1.0939871250002398
90,21,Constant,0.1,0.1,0.1,0.031622776601683784,1,0.9081079550005597
90,22,FarHighWide,0.5,0.25,0.03,0.03981071705534971,1,0.75329708100071
90,23,FarLowWide,0.03,0.25,0.5,0.06309573444801932,1,0.8010207440001977
90,24,Constant,0.1,0.1,0.1,0.02511886431509579,1,0.8226578339999833
90,25,FarHighNarrow,0.2,0.15,0.1,0.031622776601683784,1,0.932630035999864
90,26,FarHighNarrow,0.2,0.15,0.1,0.02511886431509579,0,0.7930526179998196
90,27,ThreeLinesControl,0.0,0.0,0.1,0.06309573444801932,1,0.7507341989994529
90,28,FarHighWide,0.5,0.25,0.03,0.031622776601683784,1,0.8849208159999762
90,29,FarLowNarrow,0.1,0.15,0.2,0.06309573444801932,1,0.7443992649996289
90,30,ThreeLinesControl,0.0,0.0,0.1,0.05011872336272722,1,0.6141180699996767
90,31,FarHighWide,0.5,0.25,0.03,0.02511886431509579,1,0.7003615570001784
90,32,FarLowNarrow,0.1,0.15,0.2,0.05011872336272722,1,0.8397139600001537
90,33,FarHighWide,0.5,0.25,0.03,0.01995262314968879,1,0.8220162770003299
90,34,Constant,0.1,0.1,0.1,0.01995262314968879,0,0.7229853299995739
90,35,FarHighNarrow,0.2,0.15,0.1,0.031622776601683784,1,0.7133691790004377
90,36,ThreeLinesControl,0.0,0.0,0.1,0.03981071705534971,1,0.6792175450000286
90,37,FarLowNarrow,0.1,0.15,0.2,0.03981071705534971,1,0.6602012100001957
90,38,FarLowNarrow_null,0.1,0.15,0.2,0.07943282347242815,1,0.6586801329995069
90,39,FarHighNarrow,0.2,0.15,0.1,0.02511886431509579,0,0.7605969059995914
90,40,FarLowWide,0.03,0.25,0.5,0.05011872336272722,1,0.6630765079999037
90,41,FarLowWide,0.03,0.25,0.5,0.03981071705534971,1,0.6146293249994415
90,42,FarHighWide_null,0.5,0.25,0.03,0.1,1,0.7147420179999244
90,43,Constant,0.1,0.1,0.1,0.025118864315095794,1,0.809513041000173
90,44,ThreeLinesControl,0.0,0.0,0.1,0.031622776601683784,1,0.662422988999424
90,45,Constant_null,0.1,0.1,0.1,0.1,1,0.6577174789999845
90,46,ThreeLinesControl,0.0,0.0,0.1,0.02511886431509579,1,0.663578069000323
90,47,Constant,0.1,0.1,0.1,0.01995262314968879,0,0.7421335810004166
90,48,FarLowNarrow,0.1,0.15,0.2,0.031622776601683784,1,0.9289085769996746
90,49,FarLowWide_null,0.03,0.25,0.5,0.1,1,0.6633863930001098
90,50,FarLowWide,0.03,0.25,0.5,0.031622776601683784,1,0.6772612330005359
90,51,FarHighWide,0.5,0.25,0.03,0.015848931924611127,0,0.6506687430000966
90,52,FarLowNarrow,0.1,0.15,0.2,0.02511886431509579,1,0.8727178130002358
90,53,FarHighNarrow,0.2,0.15,0.1,0.031622776601683784,1,0.9670107100000678
90,54,FarLowWide,0.03,0.25,0.5,0.02511886431509579,0,0.8531790979996003
90,55,FarHighNarrow,0.2,0.15,0.1,0.02511886431509579,1,0.6592138309997608
90,56,FarHighWide,0.5,0.25,0.03,0.01995262314968879,1,1.273558585000501
90,57,FarLowWide,0.03,0.25,0.5,0.031622776601683784,1,1.1439785490001668
90,58,FarLowNarrow,0.1,0.15,0.2,0.01995262314968879,0,1.01479198800007
90,59,ThreeLinesControl,0.0,0.0,0.1,0.01995262314968879,0,0.8826660270005959
90,60,FarHighWide,0.5,0.25,0.03,0.015848931924611127,0,0.8730196559999968
90,61,ThreeLinesControl,0.0,0.0,0.1,0.025118864315095794,1,0.9400572389995432
90,62,FarHighWide,0.5,0.25,0.03,0.01995262314968879,0,0.8663539710005352
90,63,Constant,0.1,0.1,0.1,0.025118864315095794,1,0.8883629580004708
90,64,ThreeLinesControl,0.0,0.0,0.1,0.01995262314968879,0,0.9637647959998503
90,65,FarHighWide,0.5,0.25,0.03,0.025118864315095794,1,0.9056717009998465
90,66,Constant,0.1,0.1,0.1,0.01995262314968879,1,0.9824462320002567
90,67,FarLowNarrow,0.1,0.15,0.2,0.025118864315095794,0,0.7971931100000802
90,68,Constant,0.1,0.1,0.1,0.015848931924611127,0,0.9870522840001286
90,69,FarLowWide,0.03,0.25,0.5,0.02511886431509579,0,1.1692887179997342
90,70,FarHighNarrow,0.2,0.15,0.1,0.01995262314968879,1,1.119410925000011
90,71,Constant_null,0.1,0.1,0.1,0.07943282347242815,1,0.8606088260003162
90,72,FarLowNarrow,0.1,0.15,0.2,0.031622776601683784,0,1.1540902599999754
90,73,FarLowWide,0.03,0.25,0.5,0.031622776601683784,1,1.0090342579997014
90,74,FarHighWide,0.5,0.25,0.03,0.01995262314968879,1,0.9592426959998193
90,75,Constant,0.1,0.1,0.1,0.01995262314968879,0,0.7701479300003484
90,76,FarLowNarrow,0.1,0.15,0.2,0.03981071705534971,1,0.6241160380004658
90,77,ThreeLinesControl,0.0,0.0,0.1,0.025118864315095794,1,0.6865273680004975
90,78,FarHighNarrow,0.2,0.15,0.1,0.015848931924611127,1,0.8576199420003832
90,79,FarLowNarrow,0.1,0.15,0.2,0.031622776601683784,1,0.8478183759998501
90,80,Constant,0.1,0.1,0.1,0.025118864315095794,1,0.8271510429995033
90,81,FarLowWide,0.03,0.25,0.5,0.02511886431509579,1,0.960982051999963
90,82,Constant,0.1,0.1,0.1,0.01995262314968879,1,0.9992525950001436
90,83,FarHighNarrow,0.2,0.15,0.1,0.012589254117941666,0,0.885354283000197
90,84,Constant,0.1,0.1,0.1,0.015848931924611127,1,0.8353213779992075
90,85,Constant,0.1,0.1,0.1,0.012589254117941666,0,0.8726250050003728
90,86,FarLowNarrow,0.1,0.15,0.2,0.02511886431509579,0,0.8626545480001369
90,87,Constant,0.1,0.1,0.1,0.015848931924611127,0,0.7887589560004926
90,88,Constant,0.1,0.1,0.1,0.01995262314968879,0,0.8433231620001607
90,89,FarHighNarrow,0.2,0.15,0.1,0.015848931924611127,0,0.9775599180002246
90,90,FarHighNarrow,0.2,0.15,0.1,0.01995262314968879,0,0.9929118979998748
90,91,FarLowWide,0.03,0.25,0.5,0.01995262314968879,0,0.8272985630001131
90,92,FarLowNarrow,0.1,0.15,0.2,0.031622776601683784,1,0.6978250749998551
90,93,FarLowWide,0.03,0.25,0.5,0.025118864315095794,0,0.6476731860002474
90,94,Constant,0.1,0.1,0.1,0.025118864315095794,1,0.7951546590002181
90,95,FarHighWide,0.5,0.25,0.03,0.015848931924611127,0,0.8970520200000465
90,96,Constant_null,0.1,0.1,0.1,0.06309573444801932,1,0.8232546139997794
90,97,ThreeLinesControl,0.0,0.0,0.1,0.01995262314968879,0,0.5864516040001035
90,98,FarHighWide,0.5,0.25,0.03,0.01995262314968879,0,0.8805953539995244
90,99,FarLowWide,0.03,0.25,0.5,0.031622776601683784,0,0.7906258190005246
90,100,FarHighWide,0.5,0.25,0.03,0.025118864315095794,0,0.8595763050007008
90,101,FarLowWide,0.03,0.25,0.5,0.03981071705534971,1,0.7378119200002402
90,102,FarHighWide_null,0.5,0.25,0.03,0.07943282347242815,1,0.760150748000342
90,103,FarHighNarrow_null,0.2,0.15,0.1,0.1,1,0.7982898139998724
90,104,Constant,0.1,0.1,0.1,0.01995262314968879,1,0.8604061400001228
90,105,FarHighNarrow,0.2,0.15,0.1,0.025118864315095794,1,0.9307973540007879
90,106,FarHighNarrow,0.2,0.15,0.1,0.01995262314968879,0,0.8168039460006185
90,107,FarHighNarrow,0.2,0.15,0.1,0.025118864315095794,0,0.8609271810000791
90,108,FarHighWide,0.5,0.25,0.03,0.031622776601683784,1,0.7790208260003055
90,109,FarLowWide,0.03,0.25,0.5,0.031622776601683784,1,0.8332570269994903
90,110,ThreeLinesControl,0.0,0.0,0.1,0.025118864315095794,1,0.8682629510003608
90,111,ThreeLinesControl_null,0.0,0.0,0.1,0.1,1,0.6894868930003213
90,112,FarHighNarrow,0.2,0.15,0.1,0.031622776601683784,1,0.9755218729997068
90,113,FarLowNarrow,0.1,0.15,0.2,0.02511886431509579,1,0.8678660000005038
90,114,Constant,0.1,0.1,0.1,0.015848931924611127,0,1.1619008000006943
90,115,FarHighWide,0.5,0.25,0.03,0.02511886431509579,1,0.9122426390003966
90,116,FarLowNarrow,0.1,0.15,0.2,0.01995262314968879,0,99
90,117,FarHighNarrow,0.2,0.15,0.1,0.02511886431509579,1,0.7633487360008075
90,118,FarHighNarrow,0.2,0.15,0.1,0.01995262314968879,0,0.8655146149994835
90,119,FarHighWide,0.5,0.25,0.03,0.01995262314968879,0,0.8395335310005976
90,120,FarLowNarrow,0.1,0.15,0.2,0.025118864315095794,1,0.7357078160002857
90,121,FarHighNarrow,0.2,0.15,0.1,0.025118864315095794,1,0.6033680869995806
90,122,FarHighWide,0.5,0.25,0.03,0.025118864315095794,0,0.5369376409998949
90,123,FarLowWide,0.03,0.25,0.5,0.02511886431509579,0,0.5014817459996266
90,124,FarLowNarrow,0.1,0.15,0.2,0.01995262314968879,0,0.7235845140003221
90,125,FarLowNarrow,0.1,0.15,0.2,0.025118864315095794,0,0.7378236020003897
90,126,FarHighWide,0.5,0.25,0.03,0.031622776601683784,0,1.048075938000693
90,127,ThreeLinesControl,0.0,0.0,0.1,0.01995262314968879,0,1.1581840629996805
90,128,FarLowWide,0.03,0.25,0.5,0.031622776601683784,0,99
90,129,FarHighNarrow,0.2,0.15,0.1,0.01995262314968879,1,1.0251107980002416
90,130,Constant,0.1,0.1,0.1,0.01995262314968879,0,0.9063258409996706
90,131,FarHighWide,0.5,0.25,0.03,0.03981071705534971,1,0.8447799510004188
90,132,FarHighNarrow,0.2,0.15,0.1,0.015848931924611127,1,1.1634258399999453
90,133,FarLowWide,0.03,0.25,0.5,0.03981071705534971,1,0.9465002030001415
90,134,Constant,0.1,0.1,0.1,0.025118864315095794,1,1.0441587319992323
90,135,Constant,0.1,0.1,0.1,0.01995262314968879,1,0.9064699830005338
90,136,ThreeLinesControl,0.0,0.0,0.1,0.025118864315095794,0,0.8000371420002921
90,137,FarHighNarrow,0.2,0.15,0.1,0.012589254117941666,1,0.9879372140003397
90,138,FarLowNarrow,0.1,0.15,0.2,0.031622776601683784,1,1.0814515370002482
90,139,FarLowNarrow,0.1,0.15,0.2,0.02511886431509579,1,0.9598536820003574
90,140,FarLowNarrow,0.1,0.15,0.2,0.01995262314968879,0,0.803974000999915
90,141,Constant,0.1,0.1,0.1,0.015848931924611127,1,0.8660999040002935
90,142,FarHighWide,0.5,0.25,0.03,0.031622776601683784,1,0.760331519999454
90,143,FarHighNarrow,0.2,0.15,0.1,0.009999999999999995,0,0.7584578940004576
90,144,FarHighWide,0.5,0.25,0.03,0.02511886431509579,1,1.0447477899997466
90,145,Constant,0.1,0.1,0.1,0.012589254117941666,0,0.9547043409993421
90,146,FarLowNarrow,0.1,0.15,0.2,0.025118864315095794,1,0.8728217260004385
90,147,FarHighWide,0.5,0.25,0.03,0.01995262314968879,0,0.6882978270004969
90,148,FarHighNarrow,0.2,0.15,0.1,0.012589254117941666,0,0.5562073149994831
90,149,FarHighWide,0.5,0.25,0.03,0.025118864315095794,1,0.7729282770005739
90,150,ThreeLinesControl_null,0.0,0.0,0.1,0.07943282347242815,1,0.9384781939997993
90,151,FarLowNarrow,0.1,0.15,0.2,0.01995262314968879,0,99
90,152,FarLowWide,0.03,0.25,0.5,0.031622776601683784,1,0.8025871229992845
90,153,FarLowNarrow,0.1,0.15,0.2,0.025118864315095794,1,0.9339931859994977
90,154,FarHighNarrow,0.2,0.15,0.1,0.015848931924611127,0,0.7962201240006834
90,155,FarLowNarrow,0.1,0.15,0.2,0.01995262314968879,0,0.9304478889998791
90,156,ThreeLinesControl,0.0,0.0,0.1,0.031622776601683784,0,1.1030509540005369
90,157,FarHighNarrow,0.2,0.15,0.1,0.01995262314968879,0,1.148386458999994
90,158,ThreeLinesControl,0.0,0.0,0.1,0.03981071705534971,1,0.8822883310003817
90,159,FarLowNarrow,0.1,0.15,0.2,0.025118864315095794,1,1.2728239189991655
90,160,FarHighNarrow,0.2,0.15,0.1,0.025118864315095794,0,99
90,161,FarLowNarrow,0.1,0.15,0.2,0.01995262314968879,0,0.694673388999945
90,162,FarHighNarrow_null,0.2,0.15,0.1,0.07943282347242815,0,0.9393461620002199
90,163,FarLowWide,0.03,0.25,0.5,0.02511886431509579,1,0.8334776049996435
90,164,FarHighNarrow,0.2,0.15,0.1,0.031622776601683784,1,0.7762272070003746
90,165,Constant,0.1,0.1,0.1,0.015848931924611127,0,0.8688492699993731
90,166,Constant,0.1,0.1,0.1,0.01995262314968879,1,0.8586801649998961
90,167,FarHighWide,0.5,0.25,0.03,0.01995262314968879,0,0.7898960219999935
90,168,FarHighNarrow,0.2,0.15,0.1,0.02511886431509579,1,0.7963238859992998
90,169,FarHighWide,0.5,0.25,0.03,0.025118864315095794,1,0.7910130569998728
90,170,FarHighNarrow,0.2,0.15,0.1,0.01995262314968879,1,0.9735068979998687
90,171,FarLowNarrow,0.1,0.15,0.2,0.025118864315095794,1,1.267668911000328
90,172,ThreeLinesControl,0.0,0.0,0.1,0.031622776601683784,1,1.0637737739998556
90,173,FarLowNarrow,0.1,0.15,0.2,0.01995262314968879,0,0.6224812899999961
90,174,FarLowNarrow,0.1,0.15,0.2,0.025118864315095794,1,0.6841675810001107
90,175,FarLowNarrow,0.1,0.15,0.2,0.01995262314968879,0,0.778310005000094
90,176,Constant,0.1,0.1,0.1,0.015848931924611127,1,0.8964613710004414
90,177,FarLowWide_null,0.03,0.25,0.5,0.07943282347242815,1,0.7906225739998263
90,178,FarHighWide,0.5,0.25,0.03,0.01995262314968879,1,0.8928570600000967
90,179,FarHighNarrow,0.2,0.15,0.1,0.015848931924611127,1,0.9719843940001738
90,180,Constant_null,0.1,0.1,0.1,0.05011872336272722,1,0.7916285539995442
90,181,FarHighWide,0.5,0.25,0.03,0.015848931924611127,0,0.8297723899995617
90,182,Constant,0.1,0.1,0.1,0.012589254117941666,0,0.8922526729993479
90,183,FarHighNarrow,0.2,0.15,0.1,0.012589254117941666,0,0.7834494230000928
90,184,Constant,0.1,0.1,0.1,0.015848931924611127,0,0.8772649519996776
90,185,FarHighWide,0.5,0.25,0.03,0.01995262314968879,0,0.8358221739999863
90,186,FarLowNarrow,0.1,0.15,0.2,0.025118864315095794,0,0.6947894109998742
90,187,FarLowWide,0.03,0.25,0.5,0.01995262314968879,0,0.6599588110002514
90,188,FarHighWide,0.5,0.25,0.03,0.025118864315095794,0,0.809372195000833
90,189,FarLowWide,0.03,0.25,0.5,0.025118864315095794,0,0.8452807169996959
90,190,ThreeLinesControl,0.0,0.0,0.1,0.02511886431509579,1,1.0836018540003352
90,191,FarLowWide,0.03,0.25,0.5,0.031622776601683784,0,99
90,192,Constant,0.1,0.1,0.1,0.01995262314968879,0,99
90,193,FarLowWide,0.03,0.25,0.5,0.03981071705534971,1,0.7498873429995001
90,194,FarLowWide,0.03,0.25,0.5,0.031622776601683784,1,0.8123119640004006
90,195,FarLowWide,0.03,0.25,0.5,0.02511886431509579,0,0.7304677669999364
90,196,FarLowWide,0.03,0.25,0.5,0.031622776601683784,1,1.0014994220000517
90,197,ThreeLinesControl,0.0,0.0,0.1,0.01995262314968879,1,0.8544150230000014
90,198,FarLowNarrow,0.1,0.15,0.2,0.031622776601683784,1,0.8516920199999731
90,199,ThreeLinesControl,0.0,0.0,0.1,0.015848931924611127,1,0.9673711400000684
90,200,FarHighNarrow,0.2,0.15,0.1,0.015848931924611127,1,1.1178020390007077
90,201,FarHighNarrow,0.2,0.15,0.1,0.012589254117941666,1,1.0201774639999712
90,202,FarHighWide,0.5,0.25,0.03,0.031622776601683784,1,0.8552335490003315
90,203,ThreeLinesControl,0.0,0.0,0.1,0.012589254117941666,0,0.7254276479998225
90,204,ThreeLinesControl,0.0,0.0,0.1,0.015848931924611127,0,0.9229411079995771
90,205,FarLowWide_null,0.03,0.25,0.5,0.06309573444801932,1,0.904383209000116
90,206,FarLowWide,0.03,0.25,0.5,0.02511886431509579,1,1.1178231419999065
90,207,FarLowWide,0.03,0.25,0.5,0.01995262314968879,1,1.0120708899994497
90,208,FarLowWide,0.03,0.25,0.5,0.015848931924611127,0,1.0261081700000432
90,209,FarLowNarrow,0.1,0.15,0.2,0.02511886431509579,1,1.0002793569992718
90,210,ThreeLinesControl,0.0,0.0,0.1,0.01995262314968879,0,1.1668475520000356
90,211,FarLowNarrow,0.1,0.15,0.2,0.01995262314968879,0,0.7978191150004932
90,212,FarLowNarrow_null,0.1,0.15,0.2,0.06309573444801932,0,99
90,213,Constant,0.1,0.1,0.1,0.025118864315095794,0,0.8570679320000636
90,214,FarLowWide,0.03,0.25,0.5,0.01995262314968879,0,0.7098858600002131
90,215,Constant,0.1,0.1,0.1,0.031622776601683784,0,0.7961204839994025
90,216,FarHighNarrow,0.2,0.15,0.1,0.009999999999999995,0,0.7915446009992593
90,217,FarHighNarrow_null,0.2,0.15,0.1,0.1,1,0.7734252479995121
90,218,FarLowWide,0.03,0.25,0.5,0.025118864315095794,1,1.072429839000506
90,219,FarLowWide,0.03,0.25,0.5,0.01995262314968879,0,0.830492702999436
90,220,FarHighWide,0.5,0.25,0.03,0.02511886431509579,1,0.9641057899998486
90,221,ThreeLinesControl_null,0.0,0.0,0.1,0.06309573444801932,1,0.9141119900004924
90,222,Constant,0.1,0.1,0.1,0.03981071705534971,1,0.9444115149999561
90,223,FarHighWide,0.5,0.25,0.03,0.01995262314968879,0,0.8778320849996817
90,224,Constant,0.1,0.1,0.1,0.031622776601683784,1,0.9326142429999891
90,225,FarLowNarrow,0.1,0.15,0.2,0.025118864315095794,1,0.7788891000000149
90,226,FarLowWide,0.03,0.25,0.5,0.025118864315095794,1,1.1133376699999644
90,227,FarLowNarrow,0.1,0.15,0.2,0.01995262314968879,0,99
90,228,FarLowWide,0.03,0.25,0.5,0.01995262314968879,0,99
90,229,FarLowNarrow,0.1,0.15,0.2,0.025118864315095794,1,0.7380982779995975
90,230,Constant,0.1,0.1,0.1,0.02511886431509579,1,0.9604326829994534
90,231,FarLowWide_null,0.03,0.25,0.5,0.05011872336272722,1,0.5903801020003812
90,232,Constant,0.1,0.1,0.1,0.01995262314968879,1,0.8657913799997914
90,233,Constant,0.1,0.1,0.1,0.015848931924611127,0,0.7196749700005967
90,234,FarHighNarrow_null,0.2,0.15,0.1,0.07943282347242815,1,0.6418248019999737
90,235,FarLowWide,0.03,0.25,0.5,0.025118864315095794,1,0.7691580290002094
90,236,FarHighWide,0.5,0.25,0.03,0.025118864315095794,0,99
90,237,ThreeLinesControl,0.0,0.0,0.1,0.025118864315095794,1,1.0365482189999966
90,238,FarLowWide,0.03,0.25,0.5,0.01995262314968879,0,0.6426691370006665
90,239,FarHighNarrow_null,0.2,0.15,0.1,0.06309573444801932,1,0.727755777999846
90,240,FarLowNarrow,0.1,0.15,0.2,0.01995262314968879,0,0.7063735769997948
90,241,FarLowNarrow,0.1,0.15,0.2,0.025118864315095794,0,0.6885653529998308
90,242,FarHighNarrow,0.2,0.15,0.1,0.012589254117941666,0,0.5746290359993509
90,243,FarLowNarrow,0.1,0.15,0.2,0.031622776601683784,0,0.6440825640002004
90,244,FarLowNarrow,0.1,0.15,0.2,0.03981071705534971,1,0.7458688799997617
90,245,FarHighNarrow,0.2,0.15,0.1,0.015848931924611127,1,0.9845858140006385
90,246,FarLowWide,0.03,0.25,0.5,0.025118864315095794,0,0.919603279000512
90,247,FarLowNarrow,0.1,0.15,0.2,0.031622776601683784,1,0.8608124990005308
90,248,FarHighNarrow_null,0.2,0.15,0.1,0.05011872336272722,0,0.8967062330002591
90,249,FarHighNarrow,0.2,0.15,0.1,0.012589254117941666,0,0.9185085680001066
90,250,FarLowWide,0.03,0.25,0.5,0.031622776601683784,1,1.2277407320007114
90,251,Constant,0.1,0.1,0.1,0.01995262314968879,1,1.2630026370006817
90,252,FarLowNarrow,0.1,0.15,0.2,0.02511886431509579,0,1.05315980999967
90,253,FarHighWide,0.5,0.25,0.03,0.031622776601683784,1,0.921267772999272
90,254,FarHighWide,0.5,0.25,0.03,0.02511886431509579,1,1.0224537110007077
90,255,FarLowWide,0.03,0.25,0.5,0.02511886431509579,1,1.1564908750005998
90,256,FarHighWide,0.5,0.25,0.03,0.01995262314968879,0,0.9227601730008246
90,257,FarHighNarrow_null,0.2,0.15,0.1,0.06309573444801932,1,0.9529065990000163
90,258,Constant,0.1,0.1,0.1,0.015848931924611127,1,0.9509572729994034
90,259,FarLowNarrow,0.1,0.15,0.2,0.031622776601683784,1,0.7812471960005496
90,260,ThreeLinesControl,0.0,0.0,0.1,0.01995262314968879,1,0.7711779499995828
90,261,ThreeLinesControl,0.0,0.0,0.1,0.015848931924611127,0,0.6964796649999698
90,262,ThreeLinesControl,0.0,0.0,0.1,0.01995262314968879,0,0.6958777870004269
90,263,ThreeLinesControl,0.0,0.0,0.1,0.025118864315095794,1,0.9430872029997772
90,264,FarLowWide,0.03,0.25,0.5,0.01995262314968879,1,0.9540530809999836
90,265,Constant,0.1,0.1,0.1,0.012589254117941666,0,0.8883476280007017
90,266,FarLowNarrow,0.1,0.15,0.2,0.02511886431509579,1,0.7662375489999249
90,267,FarLowNarrow,0.1,0.15,0.2,0.01995262314968879,0,99
90,268,FarHighWide,0.5,0.25,0.03,0.025118864315095794,1,0.9675480579999203
90,269,ThreeLinesControl_null,0.0,0.0,0.1,0.05011872336272722,1,0.9727860180000789
90,270,FarHighWide,0.5,0.25,0.03,0.01995262314968879,1,0.8727899339992291
90,271,FarLowWide,0.03,0.25,0.5,0.015848931924611127,0,0.7751209250000102
90,272,FarLowNarrow,0.1,0.15,0.2,0.025118864315095794,1,0.7652280180000162
90,273,FarLowWide,0.03,0.25,0.5,0.01995262314968879,1,0.9953365119999944
90,274,Constant,0.1,0.1,0.1,0.015848931924611127,0,0.8814089830002558
90,275,FarHighWide,0.5,0.25,0.03,0.015848931924611127,0,0.9265295409995815
90,276,ThreeLinesControl,0.0,0.0,0.1,0.01995262314968879,1,0.8368517060007434
90,277,FarHighWide,0.5,0.25,0.03,0.01995262314968879,0,0.8509256500001356
90,278,FarHighNarrow_null,0.2,0.15,0.1,0.05011872336272722,1,0.7519313349994263
90,279,ThreeLinesControl,0.0,0.0,0.1,0.015848931924611127,1,0.8873539719998007
90,280,FarHighNarrow,0.2,0.15,0.1,0.015848931924611127,0,0.8354636809999647
90,281,FarLowNarrow,0.1,0.15,0.2,0.01995262314968879,1,1.0414955770002052
90,282,Constant,0.1,0.1,0.1,0.01995262314968879,0,1.0225679839995792
90,283,FarLowWide,0.03,0.25,0.5,0.015848931924611127,0,1.033632407999903
90,284,FarHighWide,0.5,0.25,0.03,0.025118864315095794,1,0.9917865550005445
90,285,FarLowNarrow,0.1,0.15,0.2,0.015848931924611127,1,0.9736994819995743
90,286,FarLowWide,0.03,0.25,0.5,0.01995262314968879,0,0.5864253159998043
90,287,Constant_null,0.1,0.1,0.1,0.03981071705534971,1,0.7442640500003108
90,288,FarHighWide,0.5,0.25,0.03,0.01995262314968879,0,0.79862389399932
90,289,Constant,0.1,0.1,0.1,0.025118864315095794,0,0.9485047889993439
90,290,FarHighWide,0.5,0.25,0.03,0.025118864315095794,0,1.058717216000332
90,291,FarHighNarrow,0.2,0.15,0.1,0.01995262314968879,1,0.8649454960004732
90,292,Constant,0.1,0.1,0.1,0.031622776601683784,1,0.6792780739997397
90,293,FarLowNarrow,0.1,0.15,0.2,0.012589254117941666,0,0.8148935179997352
90,294,FarLowNarrow,0.1,0.15,0.2,0.015848931924611127,1,0.7388537419992645
90,295,Constant,0.1,0.1,0.1,0.02511886431509579,1,0.7540533489991503
90,296,ThreeLinesControl,0.0,0.0,0.1,0.012589254117941666,0,0.7775067600005059
90,297,ThreeLinesControl,0.0,0.0,0.1,0.015848931924611127,1,0.8921180009992895
90,298,FarHighNarrow_null,0.2,0.15,0.1,0.03981071705534971,1,0.8261158149998664
90,299,FarHighNarrow,0.2,0.15,0.1,0.015848931924611127,1,0.6771609610004816
90,300,Constant,0.1,0.1,0.1,0.01995262314968879,0,0.8909841579998101
90,301,FarHighWide,0.5,0.25,0.03,0.031622776601683784,1,0.8175227080000695
90,302,ThreeLinesControl,0.0,0.0,0.1,0.012589254117941666,0,1.0854116830005296
90,303,FarHighNarrow,0.2,0.15,0.1,0.012589254117941666,1,0.9798157350005567
90,304,FarHighNarrow,0.2,0.15,0.1,0.009999999999999995,0,0.9299346890002198
90,305,Constant,0.1,0.1,0.1,0.025118864315095794,0,0.7269263690004664
90,306,FarHighWide,0.5,0.25,0.03,0.02511886431509579,0,0.8132990519998202
90,307,FarLowNarrow,0.1,0.15,0.2,0.012589254117941666,0,0.8912173210001129
90,308,FarHighNarrow,0.2,0.15,0.1,0.012589254117941666,0,0.8014616659993408
90,309,Constant,0.1,0.1,0.1,0.031622776601683784,1,0.7596509900004094
90,310,FarLowWide,0.03,0.25,0.5,0.025118864315095794,0,0.7086185540001679
90,311,FarHighWide_null,0.5,0.25,0.03,0.06309573444801932,0,0.9309238790001473
90,312,FarLowNarrow,0.1,0.15,0.2,0.015848931924611127,1,1.1691227979999894
90,313,FarHighWide,0.5,0.25,0.03,0.031622776601683784,1,0.9562112800003888
90,314,FarLowWide_null,0.03,0.25,0.5,0.03981071705534971,1,0.7772834360002889
90,315,Constant,0.1,0.1,0.1,0.02511886431509579,1,0.8955864389999988
90,316,FarLowWide,0.03,0.25,0.5,0.031622776601683784,1,0.9946623830001045
90,317,Constant_null,0.1,0.1,0.1,0.031622776601683784,1,0.8568688579998707
90,318,FarHighWide_null,0.5,0.25,0.03,0.07943282347242814,0,99
90,319,FarHighNarrow,0.2,0.15,0.1,0.015848931924611127,0,1.0362447269999393
90,320,FarHighWide,0.5,0.25,0.03,0.02511886431509579,1,0.8331796880002003
90,321,FarLowNarrow_null,0.1,0.15,0.2,0.07943282347242814,1,0.7193161340001097
90,322,FarLowWide,0.03,0.25,0.5,0.02511886431509579,0,0.7095527470000889
90,323,FarLowNarrow,0.1,0.15,0.2,0.012589254117941666,0,1.2116361460002736
90,324,FarLowWide,0.03,0.25,0.5,0.031622776601683784,1,0.86613801600015
90,325,FarLowWide,0.03,0.25,0.5,0.02511886431509579,0,0.6653838149995863
90,326,FarHighNarrow,0.2,0.15,0.1,0.01995262314968879,0,0.7588707039994915
90,327,FarLowWide,0.03,0.25,0.5,0.031622776601683784,1,0.7882866339996326
90,328,ThreeLinesControl,0.0,0.0,0.1,0.015848931924611127,0,0.8664698570000837
90,329,ThreeLinesControl,0.0,0.0,0.1,0.01995262314968879,0,0.8292493459994148
90,330,FarHighNarrow,0.2,0.15,0.1,0.025118864315095794,1,0.9638412960002825
90,331,ThreeLinesControl_null,0.0,0.0,0.1,0.03981071705534971,1,0.7138015189993894
90,332,FarLowNarrow,0.1,0.15,0.2,0.015848931924611127,0,0.7091627079998943
90,333,FarLowNarrow,0.1,0.15,0.2,0.01995262314968879,1,0.7228002930005459
90,334,FarLowWide,0.03,0.25,0.5,0.02511886431509579,1,0.7204661630003102
90,335,FarHighWide,0.5,0.25,0.03,0.01995262314968879,0,0.7733524369996303
90,336,FarHighNarrow,0.2,0.15,0.1,0.01995262314968879,1,0.803756856000291
90,337,FarLowNarrow,0.1,0.15,0.2,0.015848931924611127,0,0.7701511010000104
90,338,FarHighNarrow,0.2,0.15,0.1,0.015848931924611127,1,0.7998840130003373
90,339,FarLowNarrow,0.1,0.15,0.2,0.01995262314968879,0,0.7981810530000075
90,340,FarHighNarrow,0.2,0.15,0.1,0.012589254117941666,1,0.9869458590001159
90,341,FarHighWide,0.5,0.25,0.03,0.025118864315095794,0,0.7873372949998156
90,342,Constant,0.1,0.1,0.1,0.01995262314968879,1,0.7364372499996534
90,343,ThreeLinesControl,0.0,0.0,0.1,0.025118864315095794,1,0.7964549299995269
90,344,FarHighWide,0.5,0.25,0.03,0.031622776601683784,1,0.722854680000637
90,345,FarLowWide,0.03,0.25,0.5,0.01995262314968879,0,0.7019099489998553
90,346,FarLowWide,0.03,0.25,0.5,0.025118864315095794,1,0.7002579660002084
90,347,FarHighWide,0.5,0.25,0.03,0.02511886431509579,0,0.8741570279998996
90,348,FarLowNarrow,0.1,0.15,0.2,0.025118864315095794,0,99
90,349,FarLowWide,0.03,0.25,0.5,0.01995262314968879,1,1.0197131919994717
90,350,FarLowNarrow,0.1,0.15,0.2,0.031622776601683784,1,0.7045570290001706
90,351,ThreeLinesControl,0.0,0.0,0.1,0.01995262314968879,1,0.7107389170005263
90,352,Constant,0.1,0.1,0.1,0.015848931924611127,1,0.828190745000029
90,353,FarLowWide,0.03,0.25,0.5,0.015848931924611127,0,0.7300741909994031
90,354,ThreeLinesControl,0.0,0.0,0.1,0.015848931924611127,1,0.7361604569996416
90,355,FarHighNarrow,0.2,0.15,0.1,0.009999999999999995,1,0.7826677009998093
90,356,FarLowWide,0.03,0.25,0.5,0.01995262314968879,0,0.8290896620001149
90,357,ThreeLinesControl,0.0,0.0,0.1,0.012589254117941666,0,99
90,358,ThreeLinesControl,0.0,0.0,0.1,0.015848931924611127,0,99
90,359,FarLowWide,0.03,0.25,0.5,0.025118864315095794,0,0.9511015600000974
90,360,FarLowNarrow,0.1,0.15,0.2,0.02511886431509579,0,0.7661865050004053
90,361,FarLowNarrow,0.1,0.15,0.2,0.031622776601683784,0,0.6680547460000525
90,362,ThreeLinesControl_null,0.0,0.0,0.1,0.031622776601683784,1,0.5385036730003776
90,363,Constant,0.1,0.1,0.1,0.012589254117941666,0,0.5365051939998011
90,364,FarLowWide,0.03,0.25,0.5,0.031622776601683784,1,0.7957021439997334
90,365,FarHighWide,0.5,0.25,0.03,0.031622776601683784,1,0.6494099960000312
90,366,ThreeLinesControl,0.0,0.0,0.1,0.01995262314968879,0,0.6213356429998385
90,367,FarHighNarrow,0.2,0.15,0.1,0.00794328234724281,1,0.6910813519998555
90,368,FarHighWide,0.5,0.25,0.03,0.02511886431509579,0,0.7371732709998469
90,369,FarHighWide,0.5,0.25,0.03,0.031622776601683784,1,0.6363732959998742
90,370,FarLowNarrow,0.1,0.15,0.2,0.03981071705534971,1,0.5866939159996036
90,371,FarHighWide,0.5,0.25,0.03,0.02511886431509579,1,0.5915504419999706
90,372,FarHighWide,0.5,0.25,0.03,0.01995262314968879,0,0.6857384979994094
90,373,FarHighWide,0.5,0.25,0.03,0.025118864315095794,1,0.7399210880003011
90,374,FarLowNarrow,0.1,0.15,0.2,0.031622776601683784,1,0.6261734199997591
90,375,FarLowNarrow,0.1,0.15,0.2,0.02511886431509579,1,0.7991407610006718
90,376,FarHighWide,0.5,0.25,0.03,0.01995262314968879,0,0.8134185389999402
90,377,Constant,0.1,0.1,0.1,0.015848931924611127,0,0.8037151290000111
90,378,FarHighNarrow,0.2,0.15,0.1,0.0063095734448019285,0,0.8508818860000247
90,379,Constant,0.1,0.1,0.1,0.01995262314968879,1,1.0170466190002116
90,380,FarHighNarrow,0.2,0.15,0.1,0.00794328234724281,1,1.1099321330002567
90,381,Constant,0.1,0.1,0.1,0.015848931924611127,0,1.0831530479999856
90,382,FarHighNarrow,0.2,0.15,0.1,0.0063095734448019285,0,0.9023773019998771
90,383,ThreeLinesControl,0.0,0.0,0.1,0.025118864315095794,1,0.7640079820002939
90,384,ThreeLinesControl,0.0,0.0,0.1,0.01995262314968879,1,0.786578546999408
90,385,FarHighNarrow,0.2,0.15,0.1,0.00794328234724281,1,1.269639754000309
90,386,FarHighWide,0.5,0.25,0.03,0.025118864315095794,0,0.8837816079994809
90,387,FarLowWide,0.03,0.25,0.5,0.02511886431509579,0,0.6659787190001225
90,388,FarHighNarrow,0.2,0.15,0.1,0.0063095734448019285,0,0.6709033900006034
90,389,FarLowNarrow,0.1,0.15,0.2,0.01995262314968879,0,0.5492941900001824
90,390,FarLowWide_null,0.03,0.25,0.5,0.031622776601683784,1,0.35546525700010534
90,391,Constant,0.1,0.1,0.1,0.01995262314968879,1,0.7056776249992254
90,392,ThreeLinesControl,0.0,0.0,0.1,0.015848931924611127,1,0.5834431749999567
90,393,FarLowNarrow,0.1,0.15,0.2,0.025118864315095794,0,0.4703120690001015
90,394,Constant,0.1,0.1,0.1,0.015848931924611127,0,0.6522421140007282
90,395,FarLowNarrow,0.1,0.15,0.2,0.031622776601683784,1,0.9557531950003977
90,396,FarHighWide_null,0.5,0.25,0.03,0.09999999999999999,1,0.775050893000298
90,397,FarHighNarrow,0.2,0.15,0.1,0.00794328234724281,0,0.7655454949999694
90,398,FarLowWide_null,0.03,0.25,0.5,0.02511886431509579,1,0.5876448549997804
90,399,Constant,0.1,0.1,0.1,0.01995262314968879,1,0.8146866740007681
90,400,Constant,0.1,0.1,0.1,0.015848931924611127,1,0.7408753660001821
90,401,FarLowNarrow_null,0.1,0.15,0.2,0.06309573444801932,1,0.7360588010005813
90,402,FarHighNarrow_null,0.2,0.15,0.1,0.031622776601683784,1,0.8290179510004236
90,403,Constant,0.1,0.1,0.1,0.012589254117941666,0,0.8753882529999828
90,404,FarLowWide,0.03,0.25,0.5,0.031622776601683784,1,0.833557598999505
90,405,ThreeLinesControl,0.0,0.0,0.1,0.012589254117941666,0,0.6718042610000339
90,406,FarHighNarrow,0.2,0.15,0.1,0.009999999999999995,1,1.109687264999593
90,407,FarHighWide,0.5,0.25,0.03,0.031622776601683784,0,0.8521144730002561
90,408,FarLowNarrow,0.1,0.15,0.2,0.02511886431509579,0,0.6890392730001622
90,409,FarHighNarrow_null,0.2,0.15,0.1,0.02511886431509579,1,0.614954716000284
90,410,FarHighWide,0.5,0.25,0.03,0.03981071705534971,1,0.5421034860000873
90,411,FarHighNarrow,0.2,0.15,0.1,0.00794328234724281,0,0.5647683999995934
90,412,ThreeLinesControl,0.0,0.0,0.1,0.015848931924611127,0,0.5926831189999575
90,413,FarLowNarrow,0.1,0.15,0.2,0.031622776601683784,1,0.6467933639996772
90,414,FarHighWide,0.5,0.25,0.03,0.031622776601683784,1,0.7077419830002327
90,415,FarHighNarrow,0.2,0.15,0.1,0.009999999999999995,1,0.6710610770005587
90,416,FarLowWide_null,0.03,0.25,0.5,0.01995262314968879,1,0.5335344860004625
90,417,FarHighWide,0.5,0.25,0.03,0.02511886431509579,1,0.7553752220001115
90,418,FarHighWide,0.5,0.25,0.03,0.01995262314968879,0,0.7506343889999698
90,419,FarLowNarrow,0.1,0.15,0.2,0.02511886431509579,1,0.8125498099998367
90,420,Constant,0.1,0.1,0.1,0.015848931924611127,1,0.7629230420006934
90,421,FarHighWide,0.5,0.25,0.03,0.025118864315095794,1,0.7749541159992077
90,422,FarLowWide,0.03,0.25,0.5,0.02511886431509579,0,0.7331916869998167
90,423,FarHighWide,0.5,0.25,0.03,0.01995262314968879,1,0.755447297999126
90,424,FarLowWide,0.03,0.25,0.5,0.031622776601683784,1,0.8736677580000105
90,425,ThreeLinesControl,0.0,0.0,0.1,0.01995262314968879,0,0.726695354000185
90,426,Constant,0.1,0.1,0.1,0.012589254117941666,1,0.7740410080004949
90,427,FarHighWide,0.5,0.25,0.03,0.015848931924611127,1,0.8288309649997245
90,428,ThreeLinesControl,0.0,0.0,0.1,0.025118864315095794,1,0.8831556350005485
90,429,FarHighNarrow,0.2,0.15,0.1,0.00794328234724281,0,0.7504235629994582
90,430,FarLowWide,0.03,0.25,0.5,0.02511886431509579,1,0.7644990279995909
90,431,Constant,0.1,0.1,0.1,0.009999999999999995,0,0.7434785619998365
90,432,FarLowWide,0.03,0.25,0.5,0.01995262314968879,0,0.6214496070006135
90,433,FarHighNarrow,0.2,0.15,0.1,0.009999999999999995,1,0.6749519049999435
90,434,FarLowNarrow,0.1,0.15,0.2,0.01995262314968879,1,0.6871867399995608
90,435,Constant,0.1,0.1,0.1,0.012589254117941666,1,0.8372087130001091
90,436,ThreeLinesControl,0.0,0.0,0.1,0.01995262314968879,0,0.6992616280003858
90,437,FarLowNarrow,0.1,0.15,0.2,0.015848931924611127,1,0.9215498679996017
90,438,FarLowWide,0.03,0.25,0.5,0.025118864315095794,0,0.767512973000521
90,439,FarLowNarrow,0.1,0.15,0.2,0.012589254117941666,0,0.7486105100006171
90,440,FarLowWide,0.03,0.25,0.5,0.031622776601683784,1,0.7550086179999198
90,441,FarHighNarrow,0.2,0.15,0.1,0.00794328234724281,0,0.7611059350001597
90,442,Constant,0.1,0.1,0.1,0.009999999999999995,1,0.8396443110004839
90,443,FarHighNarrow,0.2,0.15,0.1,0.009999999999999995,0,0.981671507000101
90,444,Constant,0.1,0.1,0.1,0.00794328234724281,0,0.9009330859998954
90,445,FarHighWide,0.5,0.25,0.03,0.012589254117941666,0,0.879509918999247
90,446,Constant,0.1,0.1,0.1,0.009999999999999995,0,0.8776931060001516
90,447,FarLowNarrow,0.1,0.15,0.2,0.015848931924611127,0,0.7767685740000161
90,448,FarHighWide,0.5,0.25,0.03,0.015848931924611127,0,0.774977325000691
90,449,FarHighWide_null,0.5,0.25,0.03,0.07943282347242814,1,0.7654204300006313
90,450,ThreeLinesControl,0.0,0.0,0.1,0.025118864315095794,1,0.7132805270002791
90,451,ThreeLinesControl,0.0,0.0,0.1,0.01995262314968879,0,0.8144804170005955
90,452,FarHighWide,0.5,0.25,0.03,0.01995262314968879,0,0.8523360609997326
90,453,Constant,0.1,0.1,0.1,0.012589254117941666,1,0.826698333999957
90,454,FarLowNarrow,0.1,0.15,0.2,0.01995262314968879,1,0.8969970870002726
90,455,FarHighNarrow,0.2,0.15,0.1,0.012589254117941666,0,0.743261218999578
90,456,Constant,0.1,0.1,0.1,0.009999999999999995,0,0.8214100660006807
90,457,Constant,0.1,0.1,0.1,0.012589254117941666,0,0.9393190400005551
90,458,FarLowWide,0.03,0.25,0.5,0.02511886431509579,0,0.7050153360005424
90,459,FarLowWide,0.03,0.25,0.5,0.031622776601683784,0,0.7683285129996875
90,460,FarHighWide,0.5,0.25,0.03,0.025118864315095794,0,0.782463006999933
90,461,FarLowNarrow,0.1,0.15,0.2,0.015848931924611127,0,0.8421282199997222
90,462,FarLowWide,0.03,0.25,0.5,0.03981071705534971,0,0.8790239909994852
90,463,FarHighWide,0.5,0.25,0.03,0.031622776601683784,1,0.8210003240001242
90,464,FarLowNarrow_null,0.1,0.15,0.2,0.05011872336272722,1,0.7373715920002724
90,465,Constant,0.1,0.1,0.1,0.015848931924611127,0,0.7343822920001912
90,466,Constant,0.1,0.1,0.1,0.01995262314968879,1,0.7547600660000171
90,467,ThreeLinesControl,0.0,0.0,0.1,0.025118864315095794,1,0.800742710999657
90,468,Constant,0.1,0.1,0.1,0.015848931924611127,1,0.7751895990004414
90,469,ThreeLinesControl,0.0,0.0,0.1,0.01995262314968879,0,0.7252492090001397
90,470,FarLowNarrow,0.1,0.15,0.2,0.01995262314968879,1,0.7624528639998971
90,471,ThreeLinesControl,0.0,0.0,0.1,0.025118864315095794,1,0.8494368520005082
90,472,Constant,0.1,0.1,0.1,0.012589254117941666,0,0.7277841810000609
90,473,FarLowWide,0.03,0.25,0.5,0.05011872336272721,0,0.9098044689999369
90,474,Constant,0.1,0.1,0.1,0.015848931924611127,1,0.9239914529998714
90,475,FarLowWide,0.03,0.25,0.5,0.0630957344480193,1,0.7946703050001815
90,476,FarLowNarrow,0.1,0.15,0.2,0.015848931924611127,0,0.7369880739997825
90,477,Constant,0.1,0.1,0.1,0.012589254117941666,0,0.8113912919998256
90,478,Constant,0.1,0.1,0.1,0.015848931924611127,0,0.817538415000854
90,479,FarLowWide,0.03,0.25,0.5,0.050118723362727206,1,0.629937030000292
90,480,FarHighNarrow_null,0.2,0.15,0.1,0.01995262314968879,1,0.7505274240002109
90,481,Constant_null,0.1,0.1,0.1,0.02511886431509579,1,0.5825502369998503
90,482,FarLowNarrow,0.1,0.15,0.2,0.01995262314968879,0,0.5528845779999756
90,483,ThreeLinesControl,0.0,0.0,0.1,0.01995262314968879,0,0.6069129240004258
90,484,Constant,0.1,0.1,0.1,0.01995262314968879,0,0.7530527400003848
90,485,FarHighNarrow,0.2,0.15,0.1,0.015848931924611127,0,0.639360805999786
90,486,Constant_null,0.1,0.1,0.1,0.01995262314968879,1,0.821521044000292
90,487,Constant,0.1,0.1,0.1,0.025118864315095794,0,0.6586579579998215
90,488,ThreeLinesControl,0.0,0.0,0.1,0.025118864315095794,1,1.0079966900002546
90,489,FarLowNarrow,0.1,0.15,0.2,0.025118864315095794,1,0.7901702609997301
90,490,Constant,0.1,0.1,0.1,0.031622776601683784,1,0.6922754420002093
90,491,ThreeLinesControl,0.0,0.0,0.1,0.01995262314968879,0,0.6024353360007808
90,492,FarHighWide,0.5,0.25,0.03,0.02511886431509579,1,0.7701280699993731
90,493,Constant,0.1,0.1,0.1,0.02511886431509579,1,0.6073412900004769
90,494,FarLowWide,0.03,0.25,0.5,0.039810717055349706,1,0.6391291110003294
90,495,Constant,0.1,0.1,0.1,0.01995262314968879,1,0.9550058580007317
90,496,FarLowWide,0.03,0.25,0.5,0.03162277660168378,1,0.7533787840002333
90,497,FarHighNarrow_null,0.2,0.15,0.1,0.015848931924611127,1,0.8311822550003853
90,498,ThreeLinesControl,0.0,0.0,0.1,0.025118864315095794,1,0.7302244250004151
90,499,FarLowNarrow,0.1,0.15,0.2,0.01995262314968879,1,0.8243384299994432
90,500,FarHighNarrow,0.2,0.15,0.1,0.01995262314968879,1,0.7900968860003559
90,501,FarHighNarrow,0.2,0.15,0.1,0.015848931924611127,1,0.6816987949996474
90,502,FarLowWide,0.03,0.25,0.5,0.025118864315095787,1,0.7518555059996288
90,503,Constant,0.1,0.1,0.1,0.015848931924611127,1,0.7401904630005447
90,504,FarHighNarrow_null,0.2,0.15,0.1,0.012589254117941666,1,0.8182276119996459
90,505,Constant,0.1,0.1,0.1,0.012589254117941666,0,0.9284040909997202
90,506,ThreeLinesControl,0.0,0.0,0.1,0.01995262314968879,0,0.8863089349997608
90,507,FarHighNarrow,0.2,0.15,0.1,0.012589254117941666,0,0.8207239459998164
90,508,Constant,0.1,0.1,0.1,0.015848931924611127,0,0.8108064549996925
90,509,ThreeLinesControl_null,0.0,0.0,0.1,0.02511886431509579,1,0.9944644410006731
90,510,FarHighWide_null,0.5,0.25,0.03,0.06309573444801932,1,1.0071257649997278
90,511,FarLowNarrow,0.1,0.15,0.2,0.015848931924611127,1,0.7826447540001027
90,512,ThreeLinesControl,0.0,0.0,0.1,0.025118864315095794,1,0.8353616370004602
90,513,ThreeLinesControl,0.0,0.0,0.1,0.01995262314968879,1,0.8321230689998629
90,514,Constant_null,0.1,0.1,0.1,0.015848931924611127,1,0.6994162480004888
90,515,Constant,0.1,0.1,0.1,0.01995262314968879,1,0.6418869539993466
90,516,FarHighWide,0.5,0.25,0.03,0.01995262314968879,0,0.7758484269998007
90,517,Constant,0.1,0.1,0.1,0.015848931924611127,0,0.9472530539997024
90,518,FarHighNarrow,0.2,0.15,0.1,0.015848931924611127,0,0.8651261569993949
90,519,ThreeLinesControl,0.0,0.0,0.1,0.015848931924611127,0,0.6876263710000785
90,520,ThreeLinesControl,0.0,0.0,0.1,0.01995262314968879,0,0.6926530300006561
90,521,FarHighNarrow,0.2,0.15,0.1,0.01995262314968879,1,0.6747259219991975
90,522,ThreeLinesControl,0.0,0.0,0.1,0.025118864315095794,1,0.7367143170004056
90,523,Constant,0.1,0.1,0.1,0.01995262314968879,1,0.8062088540000332
90,524,FarLowNarrow,0.1,0.15,0.2,0.012589254117941666,1,0.9319475940001212
90,525,ThreeLinesControl,0.0,0.0,0.1,0.01995262314968879,0,0.7635012150003604
90,526,FarLowNarrow,0.1,0.15,0.2,0.009999999999999995,0,0.6909845799991672
90,527,FarHighWide,0.5,0.25,0.03,0.025118864315095794,1,0.8565204760006964
90,528,FarHighNarrow,0.2,0.15,0.1,0.015848931924611127,1,0.6768345310001678
90,529,FarHighWide,0.5,0.25,0.03,0.01995262314968879,0,0.6270409989992913
90,530,FarLowNarrow,0.1,0.15,0.2,0.012589254117941666,0,0.6380649749999066
90,531,FarHighNarrow,0.2,0.15,0.1,0.012589254117941666,0,0.6682784219992755
90,532,FarHighNarrow,0.2,0.15,0.1,0.015848931924611127,0,0.794235667999601
90,533,FarHighWide,0.5,0.25,0.03,0.025118864315095794,1,0.740541922000375
90,534,ThreeLinesControl,0.0,0.0,0.1,0.025118864315095794,0,0.7542516920002527
90,535,FarLowNarrow,0.1,0.15,0.2,0.015848931924611127,0,0.6805399530003342
90,536,FarHighNarrow,0.2,0.15,0.1,0.01995262314968879,1,0.798797845000081
90,537,FarLowWide,0.03,0.25,0.5,0.019952623149688785,0,0.7081131390004884
90,538,ThreeLinesControl,0.0,0.0,0.1,0.031622776601683784,1,0.7773085349999747
90,539,FarHighNarrow,0.2,0.15,0.1,0.015848931924611127,1,0.6394030159999602
90,540,Constant_null,0.1,0.1,0.1,0.012589254117941666,1,0.7164656079994529
90,541,FarLowWide,0.03,0.25,0.5,0.025118864315095787,1,0.8675356609992377
90,542,ThreeLinesControl,0.0,0.0,0.1,0.02511886431509579,1,0.9300300009999773
90,543,FarHighWide,0.5,0.25,0.03,0.01995262314968879,0,0.8331198500000028
90,544,Constant,0.1,0.1,0.1,0.015848931924611127,1,0.7886338739999701
90,545,FarLowNarrow,0.1,0.15,0.2,0.01995262314968879,0,1.1553295190005883
90,546,FarHighNarrow,0.2,0.15,0.1,0.012589254117941666,0,0.7455338959998699
90,547,FarLowWide,0.03,0.25,0.5,0.019952623149688785,0,0.6126563369998621
90,548,FarLowWide,0.03,0.25,0.5,0.025118864315095787,0,0.5946803249998993
90,549,FarHighWide,0.5,0.25,0.03,0.025118864315095794,0,0.7419690879996779
90,550,FarHighWide,0.5,0.25,0.03,0.031622776601683784,1,0.802972275000684
90,551,FarLowWide,0.03,0.25,0.5,0.03162277660168378,1,0.7933771190000698
90,552,FarLowNarrow,0.1,0.15,0.2,0.025118864315095794,1,0.7028699849997793
90,553,ThreeLinesControl,0.0,0.0,0.1,0.01995262314968879,1,0.7974994039996091
90,554,Constant_null,0.1,0.1,0.1,0.009999999999999995,1,0.786725686999489
90,555,FarLowWide,0.03,0.25,0.5,0.025118864315095787,0,0.7446327080006085
90,556,FarLowWide,0.03,0.25,0.5,0.03162277660168378,0,0.7589086130001306
90,557,FarHighNarrow,0.2,0.15,0.1,0.015848931924611127,0,0.869391731000178
90,558,FarHighWide,0.5,0.25,0.03,0.02511886431509579,0,0.8368244980001691
90,559,ThreeLinesControl,0.0,0.0,0.1,0.015848931924611127,0,0.9708910340004877
90,560,FarHighWide,0.5,0.25,0.03,0.031622776601683784,1,0.734612246999859
90,561,FarLowNarrow_null,0.1,0.15,0.2,0.03981071705534971,1,0.707637966999755
90,562,FarLowWide,0.03,0.25,0.5,0.039810717055349706,1,0.6099434460002158
90,563,FarLowNarrow,0.1,0.15,0.2,0.01995262314968879,0,0.7088971479997781
90,564,FarLowWide,0.03,0.25,0.5,0.03162277660168378,1,0.6671191929999623
90,565,FarLowNarrow,0.1,0.15,0.2,0.025118864315095794,1,0.8894038649996219
90,566,ThreeLinesControl,0.0,0.0,0.1,0.01995262314968879,1,0.8605426310004987
90,567,Constant,0.1,0.1,0.1,0.012589254117941666,1,0.8826822560004075
90,568,FarHighNarrow,0.2,0.15,0.1,0.01995262314968879,0,0.8727585010001349
90,569,FarLowNarrow_null,0.1,0.15,0.2,0.031622776601683784,1,0.8697494190000725
90,570,FarLowNarrow,0.1,0.15,0.2,0.01995262314968879,0,0.819980692000172
90,571,FarHighWide,0.5,0.25,0.03,0.02511886431509579,1,0.8420763029998852
90,572,ThreeLinesControl,0.0,0.0,0.1,0.015848931924611127,1,0.9682284529999379
90,573,FarLowNarrow,0.1,0.15,0.2,0.025118864315095794,0,1.0142680399994788
90,574,Constant_null,0.1,0.1,0.1,0.00794328234724281,1,0.8608462169995619
90,575,FarHighNarrow,0.2,0.15,0.1,0.025118864315095794,1,0.7877687529999093
90,576,FarHighNarrow,0.2,0.15,0.1,0.01995262314968879,1,0.702746857999955
90,577,Constant,0.1,0.1,0.1,0.009999999999999995,0,0.8689778999996634
90,578,ThreeLinesControl,0.0,0.0,0.1,0.012589254117941666,0,0.8273762500002704
90,579,ThreeLinesControl,0.0,0.0,0.1,0.015848931924611127,0,0.6463225610004883
90,580,FarLowNarrow,0.1,0.15,0.2,0.031622776601683784,1,0.7078867659993193
90,581,Constant,0.1,0.1,0.1,0.012589254117941666,0,0.842721256999539
90,582,FarLowWide,0.03,0.25,0.5,0.025118864315095787,0,0.9180420249995223
90,583,Constant,0.1,0.1,0.1,0.015848931924611127,1,0.988016625000455
90,584,Constant,0.1,0.1,0.1,0.012589254117941666,0,0.7930393030001142
90,585,ThreeLinesControl,0.0,0.0,0.1,0.01995262314968879,1,0.6788716239998394
90,586,Constant,0.1,0.1,0.1,0.015848931924611127,1,0.9493088339995666
90,587,FarLowWide,0.03,0.25,0.5,0.03162277660168378,0,0.8354512759997306
90,588,FarLowNarrow,0.1,0.15,0.2,0.02511886431509579,0,99
90,589,Constant,0.1,0.1,0.1,0.012589254117941666,0,0.8399054350002189
90,590,FarHighWide,0.5,0.25,0.03,0.01995262314968879,0,0.8863557439999568
90,591,FarHighWide,0.5,0.25,0.03,0.025118864315095794,0,0.9163128860000143
90,592,Constant,0.1,0.1,0.1,0.015848931924611127,0,1.139562895000381
90,593,Constant_null,0.1,0.1,0.1,0.0063095734448019285,1,0.95130474600046
90,594,Constant,0.1,0.1,0.1,0.01995262314968879,1,0.956353044000025
90,595,FarLowWide,0.03,0.25,0.5,0.039810717055349706,1,0.9048147240000617
90,596,FarHighNarrow,0.2,0.15,0.1,0.015848931924611127,0,0.9098599089993513
90,597,FarLowNarrow,0.1,0.15,0.2,0.031622776601683784,1,0.995096638999712
90,598,FarHighNarrow,0.2,0.15,0.1,0.01995262314968879,0,0.9109362230001352
90,599,FarLowNarrow,0.1,0.15,0.2,0.02511886431509579,0,0.8774033290001171
90,600,FarHighWide,0.5,0.25,0.03,0.031622776601683784,0,0.7600119950002409
90,601,FarHighWide,0.5,0.25,0.03,0.03981071705534971,1,0.7973660739999104
90,602,FarHighNarrow,0.2,0.15,0.1,0.025118864315095794,0,0.6993604650006091
90,603,FarLowNarrow,0.1,0.15,0.2,0.031622776601683784,1,0.7055219469993972
90,604,Constant_null,0.1,0.1,0.1,0.005011872336272719,1,0.6956873059998543
90,605,FarLowWide,0.03,0.25,0.5,0.03162277660168378,1,0.7263046400003077
90,606,FarLowNarrow,0.1,0.15,0.2,0.02511886431509579,1,0.7483591579994027
90,607,FarLowNarrow,0.1,0.15,0.2,0.01995262314968879,0,0.7551260649997857
90,608,ThreeLinesControl,0.0,0.0,0.1,0.015848931924611127,0,0.8704527049994795
90,609,Constant,0.1,0.1,0.1,0.015848931924611127,0,0.7964190989996496
90,610,FarHighNarrow,0.2,0.15,0.1,0.031622776601683784,1,0.694462718000068
90,611,FarHighNarrow,0.2,0.15,0.1,0.02511886431509579,1,0.8204732889998922
90,612,FarHighNarrow,0.2,0.15,0.1,0.01995262314968879,1,0.898872047999248
90,613,FarLowWide,0.03,0.25,0.5,0.025118864315095787,1,0.9429384849991038
90,614,Constant,0.1,0.1,0.1,0.01995262314968879,1,0.9011527590000696
90,615,FarHighNarrow_null,0.2,0.15,0.1,0.009999999999999995,1,0.8511301139997158
90,616,ThreeLinesControl_null,0.0,0.0,0.1,0.01995262314968879,1,0.7844469840001693
90,617,FarHighNarrow,0.2,0.15,0.1,0.015848931924611127,1,0.8466260270006387
90,618,FarHighNarrow,0.2,0.15,0.1,0.012589254117941666,0,0.7888020789996517
90,619,FarHighNarrow,0.2,0.15,0.1,0.015848931924611127,1,0.7549903130002349
90,620,ThreeLinesControl,0.0,0.0,0.1,0.01995262314968879,0,0.8330653100001655
90,621,Constant,0.1,0.1,0.1,0.015848931924611127,0,0.9198538189993997
90,622,FarLowWide,0.03,0.25,0.5,0.019952623149688785,0,0.8854859780003608
90,623,FarHighNarrow,0.2,0.15,0.1,0.012589254117941666,0,0.8838287839998884
90,624,ThreeLinesControl,0.0,0.0,0.1,0.025118864315095794,1,0.7826730920005502
90,625,FarLowWide,0.03,0.25,0.5,0.025118864315095787,1,0.9008844939999108
90,626,FarHighNarrow,0.2,0.15,0.1,0.015848931924611127,0,99
90,627,Constant,0.1,0.1,0.1,0.01995262314968879,0,99
90,628,FarHighNarrow,0.2,0.15,0.1,0.01995262314968879,0,1.188234721000299
90,629,ThreeLinesControl,0.0,0.0,0.1,0.01995262314968879,0,99
90,630,FarLowWide,0.03,0.25,0.5,0.019952623149688785,0,0.8705933639994328
90,631,FarLowWide,0.03,0.25,0.5,0.025118864315095787,1,0.8608055780005088
90,632,FarLowNarrow,0.1,0.15,0.2,0.025118864315095794,1,1.0337225410003157
90,633,ThreeLinesControl,0.0,0.0,0.1,0.025118864315095794,1,1.127728919999754
90,634,FarLowNarrow,0.1,0.15,0.2,0.01995262314968879,1,0.9823541719997593
90,635,FarLowWide,0.03,0.25,0.5,0.019952623149688785,0,0.9079388469999685
90,636,FarHighNarrow,0.2,0.15,0.1,0.025118864315095794,1,0.9145310680005423
90,637,Constant,0.1,0.1,0.1,0.025118864315095794,1,0.8652199920006751
90,638,FarHighWide,0.5,0.25,0.03,0.031622776601683784,1,0.838513439000053
90,639,ThreeLinesControl,0.0,0.0,0.1,0.01995262314968879,1,0.9648449500000424
90,640,ThreeLinesControl_null,0.0,0.0,0.1,0.015848931924611127,1,0.8960531040002024
90,641,Constant,0.1,0.1,0.1,0.01995262314968879,0,0.8220897799992599
90,642,FarHighNarrow,0.2,0.15,0.1,0.01995262314968879,0,0.8684148129996174
90,643,FarHighWide,0.5,0.25,0.03,0.02511886431509579,0,99
90,644,FarHighNarrow,0.2,0.15,0.1,0.025118864315095794,0,1.0137404320003043
90,645,FarLowNarrow,0.1,0.15,0.2,0.015848931924611127,0,99
90,646,Constant,0.1,0.1,0.1,0.025118864315095794,0,0.9760887319998801
90,647,Constant,0.1,0.1,0.1,0.031622776601683784,0,0.9890326989998357
90,648,FarHighNarrow,0.2,0.15,0.1,0.031622776601683784,1,0.699149569999463
90,649,FarLowNarrow_null,0.1,0.15,0.2,0.02511886431509579,1,0.8014164700007314
90,650,FarHighNarrow,0.2,0.15,0.1,0.02511886431509579,1,0.8555025429996022
90,651,FarHighWide,0.5,0.25,0.03,0.031622776601683784,1,0.8714447489992381
90,652,Constant,0.1,0.1,0.1,0.03981071705534971,1,0.8040697890000956
90,653,FarHighWide,0.5,0.25,0.03,0.02511886431509579,1,0.9541882230005285
90,654,FarLowNarrow,0.1,0.15,0.2,0.01995262314968879,1,1.1266646519998176
90,655,FarLowNarrow,0.1,0.15,0.2,0.015848931924611127,0,1.0707691359993987
90,656,ThreeLinesControl,0.0,0.0,0.1,0.015848931924611127,0,1.0324813679999352
90,657,FarLowNarrow,0.1,0.15,0.2,0.01995262314968879,0,1.046443852000266
90,658,Constant,0.1,0.1,0.1,0.031622776601683784,1,1.0448074569994787
90,659,ThreeLinesControl,0.0,0.0,0.1,0.01995262314968879,0,1.2557373520003239
90,660,FarHighNarrow,0.2,0.15,0.1,0.01995262314968879,0,1.1662691210003686
90,661,ThreeLinesControl,0.0,0.0,0.1,0.025118864315095794,0,1.1870556630001374
90,662,FarLowNarrow_null,0.1,0.15,0.2,0.01995262314968879,1,1.136311678000311
90,663,FarLowNarrow,0.1,0.15,0.2,0.025118864315095794,0,0.8706416669992905
90,664,FarLowWide,0.03,0.25,0.5,0.025118864315095787,0,0.476637818999734
90,665,FarLowWide,0.03,0.25,0.5,0.03162277660168378,1,0.6419758849997379
90,666,FarHighWide,0.5,0.25,0.03,0.01995262314968879,0,0.7038885330002813
90,667,Constant,0.1,0.1,0.1,0.02511886431509579,0,0.8228640410006847
90,668,FarHighWide_null,0.5,0.25,0.03,0.05011872336272722,1,0.7573536239997338
90,669,FarHighNarrow,0.2,0.15,0.1,0.025118864315095794,1,0.6832977109997955
90,670,ThreeLinesControl,0.0,0.0,0.1,0.031622776601683784,1,0.7140263530000084
90,671,FarLowWide,0.03,0.25,0.5,0.025118864315095787,1,0.8465781369995966
90,672,FarHighWide,0.5,0.25,0.03,0.025118864315095794,0,1.0059118810004293
90,673,FarLowWide,0.03,0.25,0.5,0.019952623149688785,0,0.8329041229999348
90,674,FarLowWide,0.03,0.25,0.5,0.025118864315095787,0,0.9112710240005981
90,675,FarLowNarrow,0.1,0.15,0.2,0.031622776601683784,1,0.8902298789998895
90,676,FarLowWide,0.03,0.25,0.5,0.03162277660168378,1,0.8166039709994948
90,677,FarLowNarrow,0.1,0.15,0.2,0.02511886431509579,1,0.8706146690001333
90,678,FarLowNarrow,0.1,0.15,0.2,0.01995262314968879,0,0.8828033950003373
90,679,FarHighWide,0.5,0.25,0.03,0.031622776601683784,1,0.8884699130003355
90,680,FarHighWide,0.5,0.25,0.03,0.02511886431509579,1,0.8871341780004514
90,681,FarHighWide,0.5,0.25,0.03,0.01995262314968879,1,0.9653517050001028
90,682,FarHighWide,0.5,0.25,0.03,0.015848931924611127,0,0.9553249549999236
90,683,FarLowNarrow,0.1,0.15,0.2,0.025118864315095794,1,1.0015753799998492
90,684,ThreeLinesControl,0.0,0.0,0.1,0.02511886431509579,1,0.9774186710001231
90,685,FarLowWide_null,0.03,0.25,0.5,0.015848931924611127,1,0.8307975450006779
90,686,FarHighWide,0.5,0.25,0.03,0.01995262314968879,0,0.8667365499995867
90,687,ThreeLinesControl,0.0,0.0,0.1,0.01995262314968879,0,1.056734249999863
90,688,FarHighWide_null,0.5,0.25,0.03,0.03981071705534971,1,0.9512947489993167
90,689,FarHighWide,0.5,0.25,0.03,0.025118864315095794,1,0.7704313399999592
90,690,FarHighWide,0.5,0.25,0.03,0.01995262314968879,1,0.7283812840005339
90,691,FarLowWide,0.03,0.25,0.5,0.025118864315095787,0,0.7156712189998871
90,692,ThreeLinesControl,0.0,0.0,0.1,0.025118864315095794,1,0.8257988519999344
90,693,FarHighNarrow,0.2,0.15,0.1,0.01995262314968879,0,0.8068619350005974
90,694,FarLowNarrow,0.1,0.15,0.2,0.01995262314968879,0,0.7396835750005266
90,695,Constant,0.1,0.1,0.1,0.031622776601683784,1,0.7783836990001873
90,696,Constant,0.1,0.1,0.1,0.02511886431509579,1,0.6563431939994189
90,697,FarLowWide,0.03,0.25,0.5,0.03162277660168378,1,0.6786004719997436
90,698,FarHighNarrow_null,0.2,0.15,0.1,0.00794328234724281,1,0.7248896679993777
90,699,FarLowWide,0.03,0.25,0.5,0.025118864315095787,1,1.0667980409998563
90,700,FarHighNarrow,0.2,0.15,0.1,0.025118864315095794,1,0.8004280810000637
90,701,FarHighWide,0.5,0.25,0.03,0.015848931924611127,0,0.799508935000631
90,702,Constant,0.1,0.1,0.1,0.01995262314968879,1,1.1963969819998965
90,703,ThreeLinesControl,0.0,0.0,0.1,0.01995262314968879,1,1.0092743689992858
90,704,ThreeLinesControl,0.0,0.0,0.1,0.015848931924611127,0,0.7596047540000654
90,705,Constant,0.1,0.1,0.1,0.015848931924611127,1,1.0586093909996634
90,706,FarHighWide,0.5,0.25,0.03,0.01995262314968879,1,0.8329417020004257
90,707,ThreeLinesControl,0.0,0.0,0.1,0.01995262314968879,0,0.7831397829995694
90,708,ThreeLinesControl,0.0,0.0,0.1,0.025118864315095794,1,0.722290126000189
90,709,Constant,0.1,0.1,0.1,0.012589254117941666,1,0.9921919529997467
90,710,Constant,0.1,0.1,0.1,0.009999999999999995,0,0.8454895509994458
90,711,FarLowNarrow,0.1,0.15,0.2,0.025118864315095794,1,0.9237572479996743
90,712,ThreeLinesControl_null,0.0,0.0,0.1,0.012589254117941666,1,0.8315407050004069
90,713,FarHighWide,0.5,0.25,0.03,0.015848931924611127,1,1.0541323340003146
90,714,ThreeLinesControl,0.0,0.0,0.1,0.01995262314968879,0,0.9962559739997232
90,715,FarHighNarrow,0.2,0.15,0.1,0.01995262314968879,1,0.9303122920000533
90,716,FarLowNarrow,0.1,0.15,0.2,0.01995262314968879,1,0.87258832399948
90,717,FarLowWide,0.03,0.25,0.5,0.019952623149688785,0,0.847531426000387
90,718,ThreeLinesControl_null,0.0,0.0,0.1,0.009999999999999995,1,0.7659809329998097
90,719,FarLowNarrow,0.1,0.15,0.2,0.015848931924611127,1,0.7859747139991669
90,720,FarLowWide,0.03,0.25,0.5,0.025118864315095787,0,0.8066752560007444
90,721,FarHighWide,0.5,0.25,0.03,0.012589254117941666,0,0.5783893759999046
90,722,Constant_null,0.1,0.1,0.1,0.00398107170553497,1,0.3923526259995924
90,723,FarHighNarrow,0.2,0.15,0.1,0.015848931924611127,0,0.45163621899973805
90,724,ThreeLinesControl,0.0,0.0,0.1,0.025118864315095794,1,0.6737851500001852
90,725,FarLowWide,0.03,0.25,0.5,0.03162277660168378,1,0.7586864129998503
90,726,FarLowNarrow,0.1,0.15,0.2,0.012589254117941666,0,0.55506173699996
90,727,FarLowWide,0.03,0.25,0.5,0.025118864315095787,1,0.6242486589999316
90,728,FarHighNarrow,0.2,0.15,0.1,0.01995262314968879,1,0.8060852509997858
90,729,Constant,0.1,0.1,0.1,0.012589254117941666,0,0.708510452000155
90,730,FarLowNarrow,0.1,0.15,0.2,0.015848931924611127,1,0.6505571429997872
90,731,FarLowWide,0.03,0.25,0.5,0.019952623149688785,0,0.648954221999702
90,732,ThreeLinesControl,0.0,0.0,0.1,0.01995262314968879,0,0.8138962540006105
90,733,FarHighNarrow,0.2,0.15,0.1,0.015848931924611127,0,0.7801357759999519
90,734,Constant,0.1,0.1,0.1,0.015848931924611127,0,0.9304580730004091
90,735,FarLowNarrow,0.1,0.15,0.2,0.012589254117941666,0,1.0980639899999005
90,736,FarLowWide,0.03,0.25,0.5,0.025118864315095787,0,1.1999976889992467
90,737,FarHighWide,0.5,0.25,0.03,0.015848931924611127,1,1.027319599999828
90,738,Constant,0.1,0.1,0.1,0.01995262314968879,1,1.0659685730006458
90,739,FarLowWide,0.03,0.25,0.5,0.03162277660168378,1,0.8718090080001275
90,740,Constant,0.1,0.1,0.1,0.015848931924611127,0,0.955012314000669
90,741,FarHighWide,0.5,0.25,0.03,0.012589254117941666,0,0.8892503890001535
90,742,Constant,0.1,0.1,0.1,0.01995262314968879,1,0.9644296549995488
90,743,FarLowNarrow,0.1,0.15,0.2,0.015848931924611127,1,0.9547228000001269
90,744,FarHighWide,0.5,0.25,0.03,0.015848931924611127,0,0.8155845290002617
90,745,FarHighNarrow,0.2,0.15,0.1,0.01995262314968879,0,0.7500084289995357
90,746,FarLowWide,0.03,0.25,0.5,0.025118864315095787,0,99
90,747,FarHighNarrow_null,0.2,0.15,0.1,0.0063095734448019285,0,0.8337219360000745
90,748,FarLowWide,0.03,0.25,0.5,0.03162277660168378,1,0.8163036579999243
90,749,FarLowNarrow,0.1,0.15,0.2,0.012589254117941666,0,0.7903524869998364
90,750,Constant_null,0.1,0.1,0.1,0.0031622776601683772,1,0.7320943519998764
90,751,FarLowNarrow,0.1,0.15,0.2,0.015848931924611127,1,0.7709923290003644
90,752,FarLowWide,0.03,0.25,0.5,0.025118864315095787,1,1.0346350259997052
90,753,FarLowWide,0.03,0.25,0.5,0.019952623149688785,0,0.8453103459996782
90,754,FarLowNarrow,0.1,0.15,0.2,0.012589254117941666,0,0.6752302929999132
90,755,FarHighNarrow,0.2,0.15,0.1,0.025118864315095794,1,0.7533276159992965
90,756,FarHighNarrow,0.2,0.15,0.1,0.01995262314968879,1,0.6924808700005087
90,757,FarLowWide,0.03,0.25,0.5,0.025118864315095787,1,0.9057611349999206
90,758,FarLowNarrow,0.1,0.15,0.2,0.015848931924611127,1,0.8808383810001033
90,759,FarLowWide,0.03,0.25,0.5,0.019952623149688785,1,0.9240887639998618
90,760,FarHighWide,0.5,0.25,0.03,0.01995262314968879,0,0.8740439760003937
90,761,FarLowNarrow,0.1,0.15,0.2,0.012589254117941666,0,99
90,762,FarLowWide_null,0.03,0.25,0.5,0.012589254117941666,1,0.8053414570003952
90,763,ThreeLinesControl,0.0,0.0,0.1,0.025118864315095794,1,0.6995012500001394
90,764,FarLowWide,0.03,0.25,0.5,0.015848931924611124,1,0.8575903539995124
90,765,FarLowWide_null,0.03,0.25,0.5,0.009999999999999995,1,0.919764925999516
90,766,FarLowNarrow,0.1,0.15,0.2,0.015848931924611127,1,0.8700749630006612
90,767,FarLowNarrow,0.1,0.15,0.2,0.012589254117941666,0,1.0048299679992851
90,768,FarLowNarrow,0.1,0.15,0.2,0.015848931924611127,0,0.8745281980000073
90,769,ThreeLinesControl_null,0.0,0.0,0.1,0.00794328234724281,1,0.7295939010000438
90,770,FarHighWide,0.5,0.25,0.03,0.025118864315095794,1,0.7144030010003917
90,771,ThreeLinesControl,0.0,0.0,0.1,0.01995262314968879,1,0.8166636409996499
90,772,FarLowWide,0.03,0.25,0.5,0.012589254117941663,0,0.9399004089991649
90,773,FarLowNarrow,0.1,0.15,0.2,0.01995262314968879,1,0.9299657859992294
90,774,FarLowNarrow,0.1,0.15,0.2,0.015848931924611127,1,0.8801895679998779
90,775,FarLowWide,0.03,0.25,0.5,0.015848931924611124,1,0.8110415560004185
90,776,FarLowWide,0.03,0.25,0.5,0.012589254117941663,1,0.8176151790003132
90,777,FarHighWide,0.5,0.25,0.03,0.01995262314968879,1,0.8795680530001846
90,778,FarHighNarrow,0.2,0.15,0.1,0.015848931924611127,1,1.0938873989998683
90,779,FarHighNarrow,0.2,0.15,0.1,0.012589254117941666,0,0.8839698889996725
90,780,FarLowNarrow,0.1,0.15,0.2,0.012589254117941666,0,0.8578673129995877
90,781,FarHighWide_null,0.5,0.25,0.03,0.031622776601683784,1,0.9672147979999863
90,782,ThreeLinesControl,0.0,0.0,0.1,0.015848931924611127,1,1.0053331939998316
90,783,FarLowNarrow,0.1,0.15,0.2,0.015848931924611127,0,0.8998851520000244
90,784,FarLowNarrow,0.1,0.15,0.2,0.01995262314968879,1,0.8268202469998869
90,785,FarLowNarrow,0.1,0.15,0.2,0.015848931924611127,0,0.6894431959999565
90,786,Constant,0.1,0.1,0.1,0.015848931924611127,1,0.7649653790003867
90,787,FarHighNarrow,0.2,0.15,0.1,0.015848931924611127,1,0.7230529400003434
90,788,FarHighNarrow,0.2,0.15,0.1,0.012589254117941666,0,0.7493193740001516
90,789,FarLowWide,0.03,0.25,0.5,0.009999999999999992,0,0.6595171409999239
90,790,ThreeLinesControl,0.0,0.0,0.1,0.012589254117941666,1,0.7135793429997648
90,791,FarLowWide,0.03,0.25,0.5,0.012589254117941663,0,0.5808382770001117
90,792,ThreeLinesControl,0.0,0.0,0.1,0.009999999999999995,0,0.7389424760003749
90,793,FarHighNarrow,0.2,0.15,0.1,0.015848931924611127,1,0.8411029059998327
90,794,ThreeLinesControl,0.0,0.0,0.1,0.012589254117941666,1,0.7670183879999968
90,795,FarHighWide,0.5,0.25,0.03,0.015848931924611127,0,0.7093548889997692
90,796,FarLowNarrow,0.1,0.15,0.2,0.01995262314968879,1,0.7383446060002825
90,797,Constant,0.1,0.1,0.1,0.012589254117941666,0,0.7203307340005267
90,798,Constant,0.1,0.1,0.1,0.015848931924611127,1,1.0148803000001863
90,799,FarLowWide,0.03,0.25,0.5,0.015848931924611124,1,0.9799489019997054
90,800,FarHighWide,0.5,0.25,0.03,0.01995262314968879,0,1.0034235739994983
90,801,Constant,0.1,0.1,0.1,0.012589254117941666,0,1.1788043400001698
90,802,ThreeLinesControl,0.0,0.0,0.1,0.009999999999999995,0,0.8371911779995571
90,803,FarLowNarrow,0.1,0.15,0.2,0.015848931924611127,0,0.8194463230001929
90,804,FarHighNarrow,0.2,0.15,0.1,0.012589254117941666,0,0.9295530540002801
90,805,FarLowNarrow,0.1,0.15,0.2,0.01995262314968879,1,0.9569489420000536
90,806,Constant,0.1,0.1,0.1,0.015848931924611127,1,0.9309600610004054
90,807,ThreeLinesControl,0.0,0.0,0.1,0.012589254117941666,0,0.879152793000685
90,808,FarHighWide,0.5,0.25,0.03,0.025118864315095794,1,0.9171454269999231
90,809,FarLowNarrow,0.1,0.15,0.2,0.015848931924611127,1,0.7153448089993617
90,810,Constant,0.1,0.1,0.1,0.012589254117941666,0,0.7688021379999554
90,811,FarHighWide,0.5,0.25,0.03,0.01995262314968879,1,1.0547814719993767
90,812,FarHighNarrow_null,0.2,0.15,0.1,0.00794328234724281,1,0.7173013780002293
90,813,FarHighNarrow,0.2,0.15,0.1,0.015848931924611127,0,0.8346871690000626
90,814,FarHighWide_null,0.5,0.25,0.03,0.02511886431509579,1,0.7852937779998683
90,815,FarLowWide,0.03,0.25,0.5,0.012589254117941663,0,0.6943293399999675
90,816,Constant,0.1,0.1,0.1,0.015848931924611127,0,0.9813306550004199
90,817,ThreeLinesControl,0.0,0.0,0.1,0.015848931924611127,0,0.7560396290000426
90,818,FarHighWide,0.5,0.25,0.03,0.015848931924611127,0,0.7507240659997478
90,819,FarLowNarrow,0.1,0.15,0.2,0.012589254117941666,0,0.7408120449999842
90,820,FarHighWide,0.5,0.25,0.03,0.01995262314968879,0,0.7790855359999114
90,821,ThreeLinesControl,0.0,0.0,0.1,0.01995262314968879,0,0.6381039210000381
90,822,FarLowWide,0.03,0.25,0.5,0.015848931924611124,0,0.6123714400000608
90,823,FarLowNarrow,0.1,0.15,0.2,0.015848931924611127,1,0.6895312110000305
90,824,FarLowNarrow,0.1,0.15,0.2,0.012589254117941666,0,0.7265961140001309
90,825,Constant,0.1,0.1,0.1,0.01995262314968879,1,0.9076600679991316
90,826,FarLowWide,0.03,0.25,0.5,0.019952623149688785,0,0.7376406960001987
90,827,FarHighNarrow,0.2,0.15,0.1,0.01995262314968879,0,0.8242914980000933
90,828,Constant,0.1,0.1,0.1,0.015848931924611127,1,0.6761725100004696
90,829,FarHighWide,0.5,0.25,0.03,0.025118864315095794,1,0.6671650110001792
90,830,FarHighNarrow,0.2,0.15,0.1,0.025118864315095794,1,0.7939767460002258
90,831,ThreeLinesControl,0.0,0.0,0.1,0.025118864315095794,1,0.8013736499997322
90,832,FarHighNarrow,0.2,0.15,0.1,0.01995262314968879,1,0.8440537680007765
90,833,FarHighWide,0.5,0.25,0.03,0.01995262314968879,0,0.7229472600001827
90,834,ThreeLinesControl,0.0,0.0,0.1,0.01995262314968879,0,0.7671971200006737
90,835,FarHighWide,0.5,0.25,0.03,0.025118864315095794,1,0.7171371719996387
90,836,ThreeLinesControl,0.0,0.0,0.1,0.025118864315095794,1,0.7233992760002366
90,837,FarHighNarrow,0.2,0.15,0.1,0.015848931924611127,0,0.6304517949993169
90,838,FarHighNarrow,0.2,0.15,0.1,0.01995262314968879,1,0.956674204000592
90,839,Constant,0.1,0.1,0.1,0.012589254117941666,1,1.0018013999997493
90,840,FarLowNarrow,0.1,0.15,0.2,0.015848931924611127,0,0.7187630250000439
90,841,ThreeLinesControl,0.0,0.0,0.1,0.01995262314968879,0,0.45280782600002567
90,842,Constant,0.1,0.1,0.1,0.009999999999999995,0,0.32004003600013675
90,843,FarHighNarrow,0.2,0.15,0.1,0.015848931924611127,0,0.3423044110004412
90,844,FarHighWide,0.5,0.25,0.03,0.01995262314968879,0,0.7070994710002196
90,845,FarHighNarrow,0.2,0.15,0.1,0.01995262314968879,1,0.8642144899995401
90,846,FarLowNarrow,0.1,0.15,0.2,0.01995262314968879,1,0.7747166899998774
90,847,FarLowWide,0.03,0.25,0.5,0.025118864315095787,1,0.8367250020000938
90,848,FarHighNarrow,0.2,0.15,0.1,0.015848931924611127,1,0.9471136809997915
90,849,FarHighNarrow,0.2,0.15,0.1,0.012589254117941666,1,0.7849470479995944
90,850,FarLowNarrow,0.1,0.15,0.2,0.015848931924611127,1,0.8878874970005199
90,851,ThreeLinesControl,0.0,0.0,0.1,0.025118864315095794,1,0.8454029230006199
90,852,FarHighWide,0.5,0.25,0.03,0.025118864315095794,1,0.9144850719994793
90,853,Constant,0.1,0.1,0.1,0.012589254117941666,1,0.8157280670002365
90,854,FarLowWide_null,0.03,0.25,0.5,0.00794328234724281,1,0.6465828849995887
90,855,FarLowNarrow,0.1,0.15,0.2,0.012589254117941666,0,0.9459638449998238
90,856,FarHighWide,0.5,0.25,0.03,0.01995262314968879,0,1.1122910759995648
90,857,FarLowWide,0.03,0.25,0.5,0.019952623149688785,0,1.222389843000201
90,858,FarLowWide,0.03,0.25,0.5,0.025118864315095787,1,1.1214877759994124
90,859,FarLowWide,0.03,0.25,0.5,0.019952623149688785,0,1.0557266400001026
90,860,FarHighNarrow,0.2,0.15,0.1,0.009999999999999995,0,0.8359850739998365
90,861,FarHighNarrow,0.2,0.15,0.1,0.012589254117941666,0,1.0017901200008055
90,862,FarLowWide,0.03,0.25,0.5,0.025118864315095787,1,1.1037807579996297
90,863,ThreeLinesControl,0.0,0.0,0.1,0.01995262314968879,0,1.070292053999765
90,864,ThreeLinesControl,0.0,0.0,0.1,0.025118864315095794,0,0.8682866389999617
90,865,FarHighNarrow,0.2,0.15,0.1,0.015848931924611127,0,0.8586244250000163
90,866,ThreeLinesControl,0.0,0.0,0.1,0.031622776601683784,1,0.6568757499999265
90,867,FarLowWide,0.03,0.25,0.5,0.019952623149688785,0,0.7748936230000254
90,868,ThreeLinesControl,0.0,0.0,0.1,0.02511886431509579,0,0.7825387510001747
90,869,FarLowNarrow,0.1,0.15,0.2,0.015848931924611127,1,0.978016875999856
90,870,FarHighWide,0.5,0.25,0.03,0.025118864315095794,1,0.8001510289996077
90,871,ThreeLinesControl,0.0,0.0,0.1,0.031622776601683784,1,0.6432861439998305
90,872,FarHighNarrow,0.2,0.15,0.1,0.01995262314968879,1,0.6732892990003165
90,873,FarHighNarrow,0.2,0.15,0.1,0.015848931924611127,1,0.7196992039998804
90,874,Constant,0.1,0.1,0.1,0.009999999999999995,0,0.5544312510000964
90,875,FarHighWide,0.5,0.25,0.03,0.01995262314968879,0,0.6891093409994937
90,876,Constant,0.1,0.1,0.1,0.012589254117941666,0,0.6550927300004332
90,877,FarHighWide,0.5,0.25,0.03,0.025118864315095794,0,0.6122814969994579
90,878,FarHighWide_null,0.5,0.25,0.03,0.01995262314968879,1,0.6662463149996256
90,879,ThreeLinesControl,0.0,0.0,0.1,0.02511886431509579,1,0.9205913599998894
90,880,FarLowWide,0.03,0.25,0.5,0.025118864315095787,0,99
90,881,FarLowNarrow,0.1,0.15,0.2,0.012589254117941666,0,99
90,882,FarLowWide,0.03,0.25,0.5,0.03162277660168378,0,0.42626486499921157
90,883,FarLowNarrow,0.1,0.15,0.2,0.015848931924611127,0,0.7533137359996545
90,884,ThreeLinesControl,0.0,0.0,0.1,0.01995262314968879,0,0.6965750680001292
90,885,FarLowNarrow,0.1,0.15,0.2,0.01995262314968879,1,0.9406384989997605
90,886,FarLowNarrow_null,0.1,0.15,0.2,0.015848931924611127,1,0.6978518010000698
90,887,FarHighWide,0.5,0.25,0.03,0.031622776601683784,1,0.935712443999364
90,888,FarHighNarrow,0.2,0.15,0.1,0.012589254117941666,0,0.7070788249993711
90,889,FarHighWide,0.5,0.25,0.03,0.02511886431509579,1,0.7050504130002082
90,890,FarLowWide_null,0.03,0.25,0.5,0.0063095734448019285,1,0.6602540610001597
90,891,ThreeLinesControl,0.0,0.0,0.1,0.025118864315095794,0,0.6822617130001163
90,892,FarLowWide_null,0.03,0.25,0.5,0.005011872336272719,1,0.6565850449997015
90,893,FarLowNarrow,0.1,0.15,0.2,0.015848931924611127,1,0.6376406170002156
90,894,FarLowWide,0.03,0.25,0.5,0.039810717055349706,1,0.6277906839995921
90,895,FarHighNarrow,0.2,0.15,0.1,0.015848931924611127,1,0.7060487899998407
90,896,FarHighWide,0.5,0.25,0.03,0.01995262314968879,0,0.6640876629999184
90,897,FarHighWide,0.5,0.25,0.03,0.025118864315095794,1,0.7812338530002307
90,898,FarHighWide,0.5,0.25,0.03,0.01995262314968879,0,0.8366930429992863
90,899,FarHighWide,0.5,0.25,0.03,0.025118864315095794,0,0.9149412920005489
90,900,ThreeLinesControl,0.0,0.0,0.1,0.031622776601683784,1,0.8009601469993868
90,901,FarHighNarrow,0.2,0.15,0.1,0.012589254117941666,0,0.7409737990001304
90,902,FarLowWide,0.03,0.25,0.5,0.03162277660168378,1,0.6429840319997311
90,903,Constant,0.1,0.1,0.1,0.015848931924611127,1,0.60128141199948
90,904,Constant,0.1,0.1,0.1,0.012589254117941666,0,99
90,905,FarHighNarrow,0.2,0.15,0.1,0.015848931924611127,0,0.7624202939996394
90,906,FarLowNarrow,0.1,0.15,0.2,0.012589254117941666,0,0.799627507999503
90,907,FarLowNarrow,0.1,0.15,0.2,0.015848931924611127,1,0.7226276110004619
90,908,FarHighNarrow_null,0.2,0.15,0.1,0.0063095734448019285,1,0.7848290120000456
90,909,FarHighNarrow,0.2,0.15,0.1,0.01995262314968879,1,0.5831906260000324
90,910,ThreeLinesControl,0.0,0.0,0.1,0.02511886431509579,0,0.6052598309997848
90,911,FarLowNarrow,0.1,0.15,0.2,0.012589254117941666,0,0.6913313310005833
90,912,FarHighNarrow,0.2,0.15,0.1,0.015848931924611127,0,0.8085710290006318
90,913,Constant,0.1,0.1,0.1,0.015848931924611127,1,0.8945300229997883
90,914,Constant,0.1,0.1,0.1,0.012589254117941666,0,0.652857705000315
90,915,ThreeLinesControl,0.0,0.0,0.1,0.031622776601683784,1,0.7390657919995647
90,916,FarLowNarrow,0.1,0.15,0.2,0.015848931924611127,0,0.6662533740000072
90,917,FarLowWide,0.03,0.25,0.5,0.025118864315095787,0,0.6544691689996398
90,918,FarHighNarrow_null,0.2,0.15,0.1,0.005011872336272719,1,0.6759334690004835
90,919,FarLowWide,0.03,0.25,0.5,0.03162277660168378,1,0.7053948709999531
90,920,FarHighWide,0.5,0.25,0.03,0.031622776601683784,0,99
90,921,FarLowWide,0.03,0.25,0.5,0.025118864315095787,0,1.0109945069998503
90,922,Constant,0.1,0.1,0.1,0.015848931924611127,0,0.6969406399994114
90,923,ThreeLinesControl,0.0,0.0,0.1,0.02511886431509579,1,0.7641303200007314
90,924,Constant,0.1,0.1,0.1,0.01995262314968879,1,0.794307531999948
90,925,ThreeLinesControl,0.0,0.0,0.1,0.01995262314968879,0,0.7204048989997318
90,926,Constant,0.1,0.1,0.1,0.015848931924611127,0,0.598596488000112
90,927,FarHighWide,0.5,0.25,0.03,0.03981071705534971,1,0.7327651390005485
90,928,FarHighWide,0.5,0.25,0.03,0.031622776601683784,1,0.7548438399999213
90,929,FarLowWide,0.03,0.25,0.5,0.03162277660168378,1,0.6881838600002084
90,930,Constant,0.1,0.1,0.1,0.01995262314968879,1,0.8464636389999214
90,931,FarLowNarrow,0.1,0.15,0.2,0.01995262314968879,1,0.8207955190000575
90,932,Constant,0.1,0.1,0.1,0.015848931924611127,0,0.9638363619997108
90,933,FarHighWide,0.5,0.25,0.03,0.02511886431509579,0,0.9140853929993682
90,934,FarHighNarrow,0.2,0.15,0.1,0.01995262314968879,0,0.8297379370005729
90,935,FarHighNarrow,0.2,0.15,0.1,0.025118864315095794,1,0.8280596020003941
90,936,Constant_null,0.1,0.1,0.1,0.002511886431509578,1,0.8150667989993963
90,937,FarLowWide,0.03,0.25,0.5,0.025118864315095787,0,0.6452733200003422
90,938,FarLowWide,0.03,0.25,0.5,0.03162277660168378,1,0.6434284520000801
90,939,ThreeLinesControl,0.0,0.0,0.1,0.025118864315095794,1,0.8706543919997785
90,940,FarLowWide,0.03,0.25,0.5,0.025118864315095787,0,0.8125540869996257
90,941,ThreeLinesControl,0.0,0.0,0.1,0.01995262314968879,1,0.7536511500002234
90,942,FarLowNarrow,0.1,0.15,0.2,0.015848931924611127,0,0.536047991000487
90,943,FarLowWide,0.03,0.25,0.5,0.03162277660168378,1,0.622207408999202
90,944,FarLowNarrow,0.1,0.15,0.2,0.01995262314968879,1,0.6913032219999877
90,945,FarHighWide,0.5,0.25,0.03,0.031622776601683784,1,0.6254235380001774
90,946,FarLowWide,0.03,0.25,0.5,0.025118864315095787,0,0.6315827359994728
90,947,FarLowNarrow,0.1,0.15,0.2,0.015848931924611127,1,0.7420438539993484
90,948,FarHighWide,0.5,0.25,0.03,0.02511886431509579,0,0.8294119610000052
90,949,Constant,0.1,0.1,0.1,0.01995262314968879,0,0.7791789660004724
90,950,Constant,0.1,0.1,0.1,0.025118864315095794,1,0.8709225559996412
90,951,Constant,0.1,0.1,0.1,0.01995262314968879,1,0.8442617760001667
90,952,FarLowWide,0.03,0.25,0.5,0.03162277660168378,1,0.7465469539993137
90,953,FarHighWide,0.5,0.25,0.03,0.031622776601683784,1,0.7895947950000846
90,954,FarHighWide,0.5,0.25,0.03,0.02511886431509579,1,0.8999915270005658
90,955,FarHighNarrow,0.2,0.15,0.1,0.01995262314968879,0,99
90,956,FarHighWide,0.5,0.25,0.03,0.01995262314968879,0,0.9021269990007568
90,957,FarLowWide,0.03,0.25,0.5,0.025118864315095787,0,99
90,958,ThreeLinesControl_null,0.0,0.0,0.1,0.0063095734448019285,1,0.8571242190000703
90,959,FarHighWide,0.5,0.25,0.03,0.025118864315095794,0,0.9196746229999917
90,960,FarHighNarrow,0.2,0.15,0.1,0.025118864315095794,1,0.9379850709992752
90,961,ThreeLinesControl,0.0,0.0,0.1,0.015848931924611127,1,0.7602528670013271
90,962,Constant,0.1,0.1,0.1,0.015848931924611127,0,0.5663951379992795
90,963,FarLowWide,0.03,0.25,0.5,0.03162277660168378,1,0.59650339899963
90,964,FarLowWide,0.03,0.25,0.5,0.025118864315095787,0,0.5551446820009005
90,965,Constant,0.1,0.1,0.1,0.01995262314968879,0,0.6488144850009121
90,966,ThreeLinesControl,0.0,0.0,0.1,0.012589254117941666,0,0.5591331669984356
90,967,FarLowWide,0.03,0.25,0.5,0.03162277660168378,1,0.6420796339989465
90,968,FarLowWide,0.03,0.25,0.5,0.025118864315095787,0,0.5441015529995639
90,969,Constant,0.1,0.1,0.1,0.025118864315095794,1,0.6112893110002915
90,970,FarHighNarrow,0.2,0.15,0.1,0.01995262314968879,1,0.6255426919997262
90,971,FarLowWide,0.03,0.25,0.5,0.03162277660168378,1,0.759489702000792
90,972,FarLowWide,0.03,0.25,0.5,0.025118864315095787,1,0.7720004589991731
90,973,ThreeLinesControl,0.0,0.0,0.1,0.015848931924611127,0,0.690041318999647
90,974,FarLowWide,0.03,0.25,0.5,0.019952623149688785,0,0.6559895129994402
90,975,ThreeLinesControl,0.0,0.0,0.1,0.01995262314968879,1,0.8221995490002882
90,976,FarLowWide,0.03,0.25,0.5,0.025118864315095787,1,0.6994654720001563
90,977,FarHighWide,0.5,0.25,0.03,0.031622776601683784,1,0.7296744350005611
90,978,Constant,0.1,0.1,0.1,0.01995262314968879,1,0.7598599259999901
90,979,FarHighNarrow,0.2,0.15,0.1,0.015848931924611127,1,0.7258333839999977
90,980,Constant,0.1,0.1,0.1,0.015848931924611127,0,0.7249041530012619
90,981,FarHighNarrow,0.2,0.15,0.1,0.012589254117941666,0,0.8246242149998579
90,982,FarHighNarrow,0.2,0.15,0.1,0.015848931924611127,0,0.8646707600000809
90,983,FarLowWide,0.03,0.25,0.5,0.019952623149688785,0,99
90,984,ThreeLinesControl_null,0.0,0.0,0.1,0.005011872336272719,1,1.0815509259991813
90,985,FarHighNarrow,0.2,0.15,0.1,0.01995262314968879,1,0.7680138510004326
90,986,ThreeLinesControl,0.0,0.0,0.1,0.015848931924611127,0,0.8108036209996499
90,987,FarLowWide,0.03,0.25,0.5,0.025118864315095787,1,0.8731394799997361
90,988,ThreeLinesControl,0.0,0.0,0.1,0.01995262314968879,0,0.8211466040011146
90,989,ThreeLinesControl,0.0,0.0,0.1,0.025118864315095794,0,99
90,990,Constant,0.1,0.1,0.1,0.01995262314968879,1,0.8805079360008676
90,991,FarHighNarrow,0.2,0.15,0.1,0.015848931924611127,1,0.8385785530008434
90,992,FarHighWide,0.5,0.25,0.03,0.02511886431509579,0,0.7654512179997255
90,993,FarHighWide,0.5,0.25,0.03,0.031622776601683784,1,0.803005559999292
90,994,Constant,0.1,0.1,0.1,0.015848931924611127,0,0.6667391280006996
90,995,FarLowNarrow,0.1,0.15,0.2,0.012589254117941666,0,0.6709983999990072
90,996,ThreeLinesControl,0.0,0.0,0.1,0.031622776601683784,1,0.7401114830008737
90,997,FarLowWide,0.03,0.25,0.5,0.019952623149688785,0,0.6425504790004197
90,998,FarHighWide,0.5,0.25,0.03,0.02511886431509579,1,0.866114923999703
90,999,FarLowNarrow,0.1,0.15,0.2,0.015848931924611127,0,0.8287769329999719
90,1000,FarHighWide,0.5,0.25,0.03,0.01995262314968879,0,0.7949997289997555
90,1001,FarHighNarrow,0.2,0.15,0.1,0.012589254117941666,0,99
90,1002,ThreeLinesControl,0.0,0.0,0.1,0.02511886431509579,1,0.6832355619990267
90,1003,Constant,0.1,0.1,0.1,0.01995262314968879,1,0.6816127250003774
90,1004,FarHighWide,0.5,0.25,0.03,0.025118864315095794,1,0.7835851990002993
90,1005,FarLowNarrow,0.1,0.15,0.2,0.01995262314968879,0,0.8118794040001376
90,1006,FarLowWide,0.03,0.25,0.5,0.025118864315095787,1,0.8180293870009336
90,1007,ThreeLinesControl,0.0,0.0,0.1,0.01995262314968879,1,0.8879701619989646
90,1008,FarHighWide,0.5,0.25,0.03,0.01995262314968879,1,0.9732175760000246
90,1009,FarHighNarrow,0.2,0.15,0.1,0.015848931924611127,0,0.8433000320001156
90,1010,FarLowWide,0.03,0.25,0.5,0.019952623149688785,0,0.8117921869998099
90,1011,FarHighNarrow,0.2,0.15,0.1,0.01995262314968879,0,0.8967640040009428
90,1012,FarHighNarrow,0.2,0.15,0.1,0.025118864315095794,1,0.9188740419995156
90,1013,FarHighWide,0.5,0.25,0.03,0.015848931924611127,1,0.893479717999071
90,1014,FarHighWide_null,0.5,0.25,0.03,0.015848931924611127,0,0.8499382250010967
90,1015,FarHighNarrow,0.2,0.15,0.1,0.01995262314968879,1,0.9172649430001911
90,1016,FarLowNarrow_null,0.1,0.15,0.2,0.012589254117941666,1,0.6672745609994308
90,1017,FarLowNarrow,0.1,0.15,0.2,0.025118864315095794,1,0.5852805550002813
90,1018,FarHighWide,0.5,0.25,0.03,0.012589254117941666,0,0.6052302370007965
90,1019,FarHighWide,0.5,0.25,0.03,0.015848931924611127,0,0.6268618539997988
90,1020,FarHighWide,0.5,0.25,0.03,0.01995262314968879,0,0.6731484720003209
90,1021,ThreeLinesControl_null,0.0,0.0,0.1,0.00398107170553497,1,0.6300683789995674
90,1022,FarHighWide,0.5,0.25,0.03,0.025118864315095794,1,0.5873265200007154
90,1023,FarLowWide,0.03,0.25,0.5,0.025118864315095787,1,0.7931065220000164
90,1024,FarHighNarrow,0.2,0.15,0.1,0.015848931924611127,1,0.6875364889983757
90,1025,FarHighWide,0.5,0.25,0.03,0.01995262314968879,0,99
90,1026,FarHighWide_null,0.5,0.25,0.03,0.01995262314968879,1,0.8837018269987311
90,1027,FarLowNarrow,0.1,0.15,0.2,0.01995262314968879,0,0.7795601640009409
90,1028,FarHighWide,0.5,0.25,0.03,0.025118864315095794,0,0.9063941869990231
90,1029,FarHighWide,0.5,0.25,0.03,0.031622776601683784,1,0.7502618729995447
90,1030,FarHighNarrow,0.2,0.15,0.1,0.012589254117941666,0,0.8205009480006993
90,1031,ThreeLinesControl,0.0,0.0,0.1,0.015848931924611127,1,0.8184801409988722
90,1032,FarHighNarrow,0.2,0.15,0.1,0.015848931924611127,0,0.85367552200114
90,1033,ThreeLinesControl,0.0,0.0,0.1,0.012589254117941666,0,99
90,1034,FarHighWide,0.5,0.25,0.03,0.02511886431509579,1,0.6299031549988285
90,1035,ThreeLinesControl,0.0,0.0,0.1,0.015848931924611127,1,0.5638964839999971
90,1036,FarLowWide,0.03,0.25,0.5,0.019952623149688785,0,0.7463929789992108
90,1037,FarHighNarrow,0.2,0.15,0.1,0.01995262314968879,0,99
90,1038,FarLowWide,0.03,0.25,0.5,0.025118864315095787,0,99
90,1039,Constant,0.1,0.1,0.1,0.015848931924611127,0,0.6920108209997125
90,1040,FarLowWide,0.03,0.25,0.5,0.03162277660168378,1,0.7140359439999884
90,1041,ThreeLinesControl,0.0,0.0,0.1,0.012589254117941666,0,0.67912599400006
90,1042,FarLowWide,0.03,0.25,0.5,0.025118864315095787,0,0.7022354279997671
90,1043,ThreeLinesControl_null,0.0,0.0,0.1,0.0031622776601683772,1,0.6678508619988861
90,1044,Constant,0.1,0.1,0.1,0.01995262314968879,0,0.8028517399998236
90,1045,FarHighNarrow,0.2,0.15,0.1,0.025118864315095794,1,0.6717832300000737
90,1046,FarHighWide,0.5,0.25,0.03,0.01995262314968879,0,0.6535963580008683
90,1047,ThreeLinesControl,0.0,0.0,0.1,0.015848931924611127,1,0.7549856090008689
90,1048,Constant,0.1,0.1,0.1,0.025118864315095794,1,0.6298556420006207
90,1049,ThreeLinesControl,0.0,0.0,0.1,0.012589254117941666,0,0.5323095119983918
90,1050,FarLowNarrow,0.1,0.15,0.2,0.025118864315095794,1,0.6075906619989837
90,1051,FarHighNarrow,0.2,0.15,0.1,0.01995262314968879,1,0.5220852330003254
90,1052,FarHighWide,0.5,0.25,0.03,0.025118864315095794,1,0.7286200519993145
90,1053,FarHighWide,0.5,0.25,0.03,0.01995262314968879,0,0.7656126540005062
90,1054,Constant_null,0.1,0.1,0.1,0.001995262314968878,1,0.6441813620003813
90,1055,FarLowWide,0.03,0.25,0.5,0.03162277660168378,1,0.6249232750014926
90,1056,FarLowWide,0.03,0.25,0.5,0.025118864315095787,0,0.6394305119993078
90,1057,FarLowWide,0.03,0.25,0.5,0.03162277660168378,1,0.7974879510002211
90,1058,FarLowWide,0.03,0.25,0.5,0.025118864315095787,0,0.5796181549994799
90,1059,ThreeLinesControl,0.0,0.0,0.1,0.015848931924611127,1,0.9458483820017136
90,1060,Constant,0.1,0.1,0.1,0.01995262314968879,1,0.7684820359991136
90,1061,FarHighNarrow,0.2,0.15,0.1,0.015848931924611127,1,0.7480952630012325
90,1062,FarLowNarrow,0.1,0.15,0.2,0.01995262314968879,0,0.6420277920005901
90,1063,FarLowWide,0.03,0.25,0.5,0.03162277660168378,1,0.7123782649996429
90,1064,FarLowNarrow,0.1,0.15,0.2,0.025118864315095794,1,0.707424751999497
90,1065,FarLowNarrow,0.1,0.15,0.2,0.01995262314968879,1,0.6577529149999464
90,1066,Constant_null,0.1,0.1,0.1,0.0015848931924611121,1,0.7361106940006721
90,1067,Constant,0.1,0.1,0.1,0.015848931924611127,1,0.8670627219999005
90,1068,ThreeLinesControl,0.0,0.0,0.1,0.012589254117941666,0,0.6969508469992434
90,1069,ThreeLinesControl,0.0,0.0,0.1,0.015848931924611127,0,0.935278227998424
90,1070,FarLowWide,0.03,0.25,0.5,0.025118864315095787,0,0.7404232469998533
90,1071,FarHighWide,0.5,0.25,0.03,0.025118864315095794,1,1.1065102360007586
90,1072,FarLowWide,0.03,0.25,0.5,0.03162277660168378,1,0.7368511399999988
90,1073,ThreeLinesControl,0.0,0.0,0.1,0.01995262314968879,0,0.702801264998925
90,1074,FarHighNarrow,0.2,0.15,0.1,0.012589254117941666,0,0.7957532210002682
90,1075,FarLowWide,0.03,0.25,0.5,0.025118864315095787,0,0.77053537699976
90,1076,Constant,0.1,0.1,0.1,0.012589254117941666,0,0.6093827140011854
90,1077,FarLowWide,0.03,0.25,0.5,0.03162277660168378,1,0.6488143039987335
90,1078,Constant,0.1,0.1,0.1,0.015848931924611127,0,0.8438313860006019
90,1079,ThreeLinesControl,0.0,0.0,0.1,0.025118864315095794,1,0.8013827830000082
90,1080,FarHighWide,0.5,0.25,0.03,0.01995262314968879,0,0.6429053419997217
90,1081,ThreeLinesControl,0.0,0.0,0.1,0.01995262314968879,0,0.5051860580006178
90,1082,ThreeLinesControl,0.0,0.0,0.1,0.025118864315095794,0,0.37326614599987806
90,1083,ThreeLinesControl,0.0,0.0,0.1,0.031622776601683784,1,0.4832082579996495
90,1084,FarHighWide,0.5,0.25,0.03,0.025118864315095794,0,0.5209664140002133
90,1085,Constant,0.1,0.1,0.1,0.01995262314968879,0,0.45231463900017843
90,1086,FarLowNarrow,0.1,0.15,0.2,0.015848931924611127,0,0.6025674979991891
90,1087,FarLowNarrow,0.1,0.15,0.2,0.01995262314968879,1,0.656792828000107
90,1088,FarHighNarrow,0.2,0.15,0.1,0.015848931924611127,0,0.5959697829985089
90,1089,FarHighWide,0.5,0.25,0.03,0.031622776601683784,1,0.6740454040009354
90,1090,FarLowNarrow,0.1,0.15,0.2,0.015848931924611127,0,0.6640856750000239
90,1091,FarLowNarrow,0.1,0.15,0.2,0.01995262314968879,1,0.9011902530000953
90,1092,FarHighNarrow,0.2,0.15,0.1,0.01995262314968879,0,0.795134298999983
90,1093,Constant,0.1,0.1,0.1,0.025118864315095794,1,0.7136123019990919
90,1094,FarLowWide,0.03,0.25,0.5,0.025118864315095787,0,0.7756528390000312
90,1095,FarLowWide,0.03,0.25,0.5,0.03162277660168378,1,0.7259113769996475
90,1096,FarHighWide,0.5,0.25,0.03,0.02511886431509579,1,0.9322943879997183
90,1097,Constant,0.1,0.1,0.1,0.01995262314968879,0,0.8983165820009162
90,1098,FarHighNarrow,0.2,0.15,0.1,0.025118864315095794,1,0.8658783379996748
90,1099,Constant,0.1,0.1,0.1,0.025118864315095794,0,1.1813408710004296
90,1100,FarHighWide_null,0.5,0.25,0.03,0.015848931924611127,1,0.8515290220002498
90,1101,Constant,0.1,0.1,0.1,0.031622776601683784,1,0.7177707920000103
90,1102,ThreeLinesControl,0.0,0.0,0.1,0.02511886431509579,0,0.6759926490012731
90,1103,Constant,0.1,0.1,0.1,0.02511886431509579,0,0.8900755210015632
90,1104,Constant,0.1,0.1,0.1,0.031622776601683784,1,0.9742466239986243
90,1105,FarLowWide,0.03,0.25,0.5,0.025118864315095787,1,0.8353164870004548
90,1106,Constant_null,0.1,0.1,0.1,0.001258925411794166,1,0.745477349999419
90,1107,FarHighWide_null,0.5,0.25,0.03,0.012589254117941666,1,0.8317698330010899
90,1108,FarHighWide,0.5,0.25,0.03,0.01995262314968879,0,0.8140513590005867
90,1109,FarLowNarrow,0.1,0.15,0.2,0.015848931924611127,1,0.9316598479999811
90,1110,ThreeLinesControl,0.0,0.0,0.1,0.031622776601683784,0,0.8010523619996093
90,1111,FarLowNarrow,0.1,0.15,0.2,0.012589254117941666,0,99
90,1112,FarHighWide,0.5,0.25,0.03,0.025118864315095794,0,0.7338441190004232
90,1113,ThreeLinesControl,0.0,0.0,0.1,0.03981071705534971,1,0.6369916730000114
90,1114,Constant,0.1,0.1,0.1,0.02511886431509579,1,0.6671186219991796
90,1115,FarHighNarrow,0.2,0.15,0.1,0.01995262314968879,1,0.6787679829994886
90,1116,FarLowWide,0.03,0.25,0.5,0.019952623149688785,0,0.6931305660000362
90,1117,ThreeLinesControl,0.0,0.0,0.1,0.031622776601683784,1,0.7071145469999465
90,1118,Constant,0.1,0.1,0.1,0.01995262314968879,0,0.6439491260007344
90,1119,Constant,0.1,0.1,0.1,0.025118864315095794,1,0.6664355670000077
90,1120,Constant,0.1,0.1,0.1,0.01995262314968879,1,0.6705629659991246
90,1121,ThreeLinesControl,0.0,0.0,0.1,0.02511886431509579,1,0.6288482210002257
90,1122,FarHighNarrow,0.2,0.15,0.1,0.015848931924611127,1,0.6576988290016743
90,1123,Constant,0.1,0.1,0.1,0.015848931924611127,0,0.591834208000364
90,1124,ThreeLinesControl,0.0,0.0,0.1,0.01995262314968879,1,0.5823956750009529
90,1125,Constant,0.1,0.1,0.1,0.01995262314968879,1,0.6043118020006659
90,1126,Constant,0.1,0.1,0.1,0.015848931924611127,1,0.5546294949999719
90,1127,FarHighWide,0.5,0.25,0.03,0.031622776601683784,1,0.5366034489998128
90,1128,FarLowNarrow,0.1,0.15,0.2,0.015848931924611127,1,0.6620911259997229
90,1129,Constant,0.1,0.1,0.1,0.012589254117941666,0,0.6600727009990806
90,1130,FarHighWide,0.5,0.25,0.03,0.02511886431509579,1,0.6834773160007899
90,1131,FarHighNarrow,0.2,0.15,0.1,0.012589254117941666,0,0.6142860100007965
90,1132,FarHighWide_null,0.5,0.25,0.03,0.009999999999999995,1,0.6438417589997698
90,1133,FarHighWide,0.5,0.25,0.03,0.01995262314968879,1,0.6980361219993938
90,1134,FarHighNarrow,0.2,0.15,0.1,0.015848931924611127,1,0.7577390209989971
90,1135,ThreeLinesControl,0.0,0.0,0.1,0.015848931924611127,0,0.8113308810006856
90,1136,FarLowNarrow,0.1,0.15,0.2,0.012589254117941666,0,0.7999300459996448
90,1137,ThreeLinesControl,0.0,0.0,0.1,0.01995262314968879,1,1.1980268089992023
90,1138,FarHighWide,0.5,0.25,0.03,0.015848931924611127,1,1.163239966999754
90,1139,ThreeLinesControl,0.0,0.0,0.1,0.015848931924611127,1,0.9775583940008801
90,1140,FarHighNarrow,0.2,0.15,0.1,0.012589254117941666,1,0.8235428569987562
90,1141,ThreeLinesControl,0.0,0.0,0.1,0.012589254117941666,0,0.7497897579996788
90,1142,FarLowNarrow_null,0.1,0.15,0.2,0.009999999999999995,1,0.6998770499994862
90,1143,FarLowNarrow,0.1,0.15,0.2,0.015848931924611127,0,0.7061899330001324
90,1144,ThreeLinesControl,0.0,0.0,0.1,0.015848931924611127,0,0.6631072790005419
90,1145,FarHighWide,0.5,0.25,0.03,0.012589254117941666,0,0.6852890829995886
90,1146,FarHighNarrow,0.2,0.15,0.1,0.009999999999999995,0,0.595976704998975
90,1147,FarHighWide,0.5,0.25,0.03,0.015848931924611127,0,0.5353289889990265
90,1148,FarLowNarrow,0.1,0.15,0.2,0.01995262314968879,1,0.6939508150007896
90,1149,FarHighWide,0.5,0.25,0.03,0.01995262314968879,1,0.7638893450002797
90,1150,FarLowNarrow,0.1,0.15,0.2,0.015848931924611127,1,0.6629214250006044
90,1151,FarHighWide,0.5,0.25,0.03,0.015848931924611127,0,0.5801483279992681
90,1152,FarHighNarrow,0.2,0.15,0.1,0.012589254117941666,0,0.6186253480009327
90,1153,FarHighWide_null,0.5,0.25,0.03,0.00794328234724281,1,0.6866222389999166
90,1154,ThreeLinesControl,0.0,0.0,0.1,0.01995262314968879,0,0.7085761960006494
90,1155,FarLowNarrow,0.1,0.15,0.2,0.012589254117941666,0,0.7547400750008819
90,1156,FarHighWide,0.5,0.25,0.03,0.01995262314968879,1,0.7049261569991359
90,1157,ThreeLinesControl,0.0,0.0,0.1,0.025118864315095794,1,0.750935236001169
90,1158,FarHighNarrow,0.2,0.15,0.1,0.015848931924611127,0,0.701334475999829
90,1159,ThreeLinesControl,0.0,0.0,0.1,0.01995262314968879,1,0.6829991470003733
90,1160,FarHighNarrow,0.2,0.15,0.1,0.01995262314968879,0,0.6415686550008104
90,1161,FarHighNarrow,0.2,0.15,0.1,0.025118864315095794,1,0.6865457610001613
90,1162,FarHighNarrow,0.2,0.15,0.1,0.01995262314968879,0,0.7092318869999872
90,1163,ThreeLinesControl,0.0,0.0,0.1,0.015848931924611127,0,0.6670211000000563
90,1164,FarLowWide_null,0.03,0.25,0.5,0.00398107170553497,1,0.6470735650000279
90,1165,ThreeLinesControl,0.0,0.0,0.1,0.01995262314968879,0,0.8841033129992866
90,1166,ThreeLinesControl,0.0,0.0,0.1,0.025118864315095794,0,1.0074352070005261
90,1167,FarHighNarrow,0.2,0.15,0.1,0.025118864315095794,1,0.725440731001072
90,1168,FarHighNarrow,0.2,0.15,0.1,0.01995262314968879,0,0.8916993800012278
90,1169,ThreeLinesControl,0.0,0.0,0.1,0.031622776601683784,1,0.7758506050013239
90,1170,ThreeLinesControl,0.0,0.0,0.1,0.02511886431509579,1,0.7019532980011718
90,1171,ThreeLinesControl,0.0,0.0,0.1,0.01995262314968879,1,0.7242200389991922
90,1172,ThreeLinesControl,0.0,0.0,0.1,0.015848931924611127,1,0.7460373640005855
90,1173,ThreeLinesControl,0.0,0.0,0.1,0.012589254117941666,0,0.7283966150007473
90,1174,ThreeLinesControl,0.0,0.0,0.1,0.015848931924611127,0,0.8322518830009358
90,1175,FarHighWide_null,0.5,0.25,0.03,0.0063095734448019285,1,0.7651296750009351
90,1176,ThreeLinesControl,0.0,0.0,0.1,0.01995262314968879,1,0.7167688930003351
90,1177,ThreeLinesControl,0.0,0.0,0.1,0.015848931924611127,0,0.7531570630017086
90,1178,ThreeLinesControl,0.0,0.0,0.1,0.01995262314968879,1,0.8061832849998609
90,1179,ThreeLinesControl,0.0,0.0,0.1,0.015848931924611127,1,0.8117896620005922
90,1180,ThreeLinesControl,0.0,0.0,0.1,0.012589254117941666,0,0.7275328879986773
90,1181,ThreeLinesControl,0.0,0.0,0.1,0.015848931924611127,0,0.7962803230002464
90,1182,ThreeLinesControl,0.0,0.0,0.1,0.01995262314968879,1,0.8664402180002071
90,1183,FarLowWide_null,0.03,0.25,0.5,0.0031622776601683772,1,0.8061508319988206
90,1184,FarLowNarrow_null,0.1,0.15,0.2,0.00794328234724281,1,0.6437428960016405
90,1185,FarLowNarrow_null,0.1,0.15,0.2,0.0063095734448019285,1,0.6732255749993783
90,1186,ThreeLinesControl_null,0.0,0.0,0.1,0.002511886431509578,1,1.263334028000827
90,1187,FarHighWide_null,0.5,0.25,0.03,0.005011872336272719,1,0.868312294000134
90,1188,ThreeLinesControl_null,0.0,0.0,0.1,0.001995262314968878,1,0.6346559740013618
90,1189,FarLowNarrow_null,0.1,0.15,0.2,0.005011872336272719,1,0.6327263760013011
90,1190,ThreeLinesControl_null,0.0,0.0,0.1,0.0015848931924611121,1,0.5752236809985334
90,1191,FarLowNarrow_null,0.1,0.15,0.2,0.00398107170553497,1,0.5753583990008337
90,1192,ThreeLinesControl_null,0.0,0.0,0.1,0.001258925411794166,1,0.6060132470011013
90,1193,FarLowWide_null,0.03,0.25,0.5,0.002511886431509578,1,0.5854637539996475
90,1194,FarLowNarrow_null,0.1,0.15,0.2,0.0031622776601683772,1,0.6074706409999635
90,1195,FarLowNarrow_null,0.1,0.15,0.2,0.002511886431509578,1,0.5816280319995712
90,1196,FarLowWide_null,0.03,0.25,0.5,0.001995262314968878,1,0.560827370001789
90,1197,FarLowWide_null,0.03,0.25,0.5,0.0015848931924611121,1,0.5990271669998037
90,1198,FarLowNarrow_null,0.1,0.15,0.2,0.001995262314968878,1,0.6132408949997625
90,1199,FarLowWide_null,0.03,0.25,0.5,0.001258925411794166,1,0.6244179759996769
