Participant_Number,Trial_Number,Condition,FCfar,FCmed,FCclose,Target_Contrast,Correct_Response,Reaction_Time
85,0,Constant,0.1,0.1,0.1,0.1,1,0.7931526859993028
85,1,ThreeLinesControl,0.0,0.0,0.1,0.1,1,0.5513889499998186
85,2,FarHighWide,0.5,0.25,0.03,0.1,1,0.3892349010002363
85,3,FarLowNarrow,0.1,0.15,0.2,0.1,1,0.34856935199968575
85,4,Constant,0.1,0.1,0.1,0.07943282347242815,1,0.2164641279996431
85,5,Constant,0.1,0.1,0.1,0.06309573444801932,1,0.1666542359998857
85,6,FarLowNarrow,0.1,0.15,0.2,0.07943282347242815,1,0.3940331140001945
85,7,FarHighWide,0.5,0.25,0.03,0.07943282347242815,1,0.49601273799999035
85,8,Constant,0.1,0.1,0.1,0.05011872336272722,1,0.4860714209989965
85,9,FarHighNarrow,0.2,0.15,0.1,0.1,1,0.561099380000087
85,10,FarLowNarrow,0.1,0.15,0.2,0.06309573444801932,1,0.3745323080001981
85,11,FarLowWide,0.03,0.25,0.5,0.1,1,0.2762084969999705
85,12,FarHighNarrow,0.2,0.15,0.1,0.07943282347242815,1,0.5147172729994054
85,13,FarLowNarrow,0.1,0.15,0.2,0.05011872336272722,1,0.512760290001097
85,14,ThreeLinesControl,0.0,0.0,0.1,0.07943282347242815,1,0.4949110390007263
85,15,ThreeLinesControl,0.0,0.0,0.1,0.06309573444801932,1,0.3802414260007936
85,16,Constant,0.1,0.1,0.1,0.03981071705534971,1,0.4891377559997636
85,17,ThreeLinesControl,0.0,0.0,0.1,0.05011872336272722,1,0.5207862039987958
85,18,FarLowWide,0.03,0.25,0.5,0.07943282347242815,1,0.4469672470004298
85,19,FarHighNarrow,0.2,0.15,0.1,0.06309573444801932,1,0.4141638689998217
85,20,Constant,0.1,0.1,0.1,0.031622776601683784,1,0.5299499979992106
85,21,FarHighWide_null,0.5,0.25,0.03,0.1,0,0.36001589199986483
85,22,ThreeLinesControl,0.0,0.0,0.1,0.03981071705534971,1,0.4670208110001113
85,23,FarHighNarrow,0.2,0.15,0.1,0.05011872336272722,1,0.48070883199943637
85,24,Constant,0.1,0.1,0.1,0.02511886431509579,1,0.5590051059989491
85,25,FarHighWide,0.5,0.25,0.03,0.06309573444801932,1,0.5374531029992795
85,26,FarHighNarrow,0.2,0.15,0.1,0.03981071705534971,1,0.5594308210002055
85,27,FarHighWide,0.5,0.25,0.03,0.05011872336272722,1,0.3899967260003905
85,28,FarLowNarrow,0.1,0.15,0.2,0.03981071705534971,1,0.547695854000267
85,29,FarLowNarrow,0.1,0.15,0.2,0.031622776601683784,1,0.5862562470010744
85,30,FarLowNarrow,0.1,0.15,0.2,0.02511886431509579,1,0.5112480539992248
85,31,FarLowNarrow,0.1,0.15,0.2,0.01995262314968879,1,0.5814076749993546
85,32,FarHighWide,0.5,0.25,0.03,0.03981071705534971,1,0.57168774999991
85,33,ThreeLinesControl,0.0,0.0,0.1,0.031622776601683784,1,0.5220047189995967
85,34,Constant,0.1,0.1,0.1,0.01995262314968879,1,0.47334380199936277
85,35,FarLowWide,0.03,0.25,0.5,0.06309573444801932,1,0.5430910859995493
85,36,FarLowWide,0.03,0.25,0.5,0.05011872336272722,1,0.49011509500087413
85,37,FarHighWide,0.5,0.25,0.03,0.031622776601683784,1,0.5759526739984722
85,38,FarHighWide,0.5,0.25,0.03,0.02511886431509579,1,0.4945108270003402
85,39,Constant,0.1,0.1,0.1,0.015848931924611127,1,0.5854059809989849
85,40,FarLowWide,0.03,0.25,0.5,0.03981071705534971,1,0.6157573599994066
85,41,Constant_null,0.1,0.1,0.1,0.1,0,0.6670628729989403
85,42,Constant_null,0.1,0.1,0.1,0.1,1,0.4969960939997691
85,43,Constant,0.1,0.1,0.1,0.012589254117941666,0,0.6711374120004621
85,44,FarHighNarrow,0.2,0.15,0.1,0.031622776601683784,1,0.5735013850007817
85,45,FarHighWide,0.5,0.25,0.03,0.01995262314968879,1,0.4756626349990256
85,46,ThreeLinesControl,0.0,0.0,0.1,0.02511886431509579,1,0.5695794509992993
85,47,FarLowNarrow,0.1,0.15,0.2,0.015848931924611127,1,0.6548766330015496
85,48,FarLowWide,0.03,0.25,0.5,0.031622776601683784,0,0.6448363100007555
85,49,Constant,0.1,0.1,0.1,0.015848931924611127,0,0.7063234069992177
85,50,FarLowWide,0.03,0.25,0.5,0.03981071705534971,1,0.5297217819988873
85,51,FarHighNarrow,0.2,0.15,0.1,0.02511886431509579,1,0.5114165420000063
85,52,FarHighNarrow,0.2,0.15,0.1,0.01995262314968879,1,0.5475387920014327
85,53,FarLowNarrow,0.1,0.15,0.2,0.012589254117941666,0,0.6576092939994851
85,54,ThreeLinesControl,0.0,0.0,0.1,0.01995262314968879,1,0.630683327000952
85,55,FarLowNarrow,0.1,0.15,0.2,0.015848931924611127,1,0.5067275510009495
85,56,FarHighWide,0.5,0.25,0.03,0.015848931924611127,1,0.5362846839998383
85,57,FarLowNarrow,0.1,0.15,0.2,0.012589254117941666,1,0.534321226999964
85,58,FarHighNarrow,0.2,0.15,0.1,0.015848931924611127,1,0.7534066850003001
85,59,FarLowWide,0.03,0.25,0.5,0.031622776601683784,1,0.6395263330014131
85,60,FarLowNarrow_null,0.1,0.15,0.2,0.1,1,0.5976910419994965
85,61,Constant,0.1,0.1,0.1,0.01995262314968879,1,0.6838196140015498
85,62,FarHighWide,0.5,0.25,0.03,0.012589254117941666,1,0.6979565479996381
85,63,Constant,0.1,0.1,0.1,0.015848931924611127,1,0.6163450559997727
85,64,FarLowNarrow,0.1,0.15,0.2,0.009999999999999995,0,0.5423385490012151
85,65,FarLowNarrow,0.1,0.15,0.2,0.012589254117941666,1,0.7872858219998307
85,66,FarLowWide,0.03,0.25,0.5,0.02511886431509579,1,0.4910399189993768
85,67,Constant_null,0.1,0.1,0.1,0.07943282347242815,1,0.5530698459988344
85,68,FarHighWide,0.5,0.25,0.03,0.009999999999999995,1,0.6001887029997306
85,69,FarLowNarrow,0.1,0.15,0.2,0.009999999999999995,0,0.5870554399989487
85,70,FarLowNarrow,0.1,0.15,0.2,0.012589254117941666,1,0.7611792469997454
85,71,FarHighWide,0.5,0.25,0.03,0.00794328234724281,1,0.7563665939997009
85,72,ThreeLinesControl,0.0,0.0,0.1,0.015848931924611127,1,0.530610510999395
85,73,FarHighWide,0.5,0.25,0.03,0.0063095734448019285,0,0.6156957610000973
85,74,ThreeLinesControl_null,0.0,0.0,0.1,0.1,0,0.5877565209993918
85,75,ThreeLinesControl,0.0,0.0,0.1,0.012589254117941666,1,0.4656061650002812
85,76,FarHighNarrow,0.2,0.15,0.1,0.012589254117941666,0,0.47216853399913816
85,77,FarLowWide_null,0.03,0.25,0.5,0.1,1,0.6851753119990462
85,78,ThreeLinesControl,0.0,0.0,0.1,0.009999999999999995,0,0.5953172939989599
85,79,FarLowWide,0.03,0.25,0.5,0.01995262314968879,1,0.5935544240001036
85,80,FarHighWide,0.5,0.25,0.03,0.00794328234724281,1,0.6395663379989855
85,81,ThreeLinesControl,0.0,0.0,0.1,0.012589254117941666,0,0.5818657840009109
85,82,FarHighWide,0.5,0.25,0.03,0.0063095734448019285,0,0.8439232849996188
85,83,Constant,0.1,0.1,0.1,0.012589254117941666,1,0.586479847001101
85,84,FarHighNarrow,0.2,0.15,0.1,0.015848931924611127,1,0.512329064998994
85,85,FarHighNarrow,0.2,0.15,0.1,0.012589254117941666,1,0.668455625000206
85,86,FarHighNarrow,0.2,0.15,0.1,0.009999999999999995,0,0.49741167100000894
85,87,FarLowWide,0.03,0.25,0.5,0.015848931924611127,1,0.5566408380000212
85,88,Constant,0.1,0.1,0.1,0.009999999999999995,0,0.538800057998742
85,89,ThreeLinesControl,0.0,0.0,0.1,0.015848931924611127,1,0.5455052550005348
85,90,FarLowWide,0.03,0.25,0.5,0.012589254117941666,0,0.3815012029990612
85,91,ThreeLinesControl,0.0,0.0,0.1,0.012589254117941666,0,0.45131646300069406
85,92,FarLowNarrow,0.1,0.15,0.2,0.009999999999999995,0,0.46549767299984524
85,93,FarLowWide_null,0.03,0.25,0.5,0.07943282347242815,0,0.46355126299931726
85,94,FarLowNarrow,0.1,0.15,0.2,0.012589254117941666,1,1.0284942959988257
85,95,Constant,0.1,0.1,0.1,0.012589254117941666,1,0.7065583559997322
85,96,FarHighWide,0.5,0.25,0.03,0.00794328234724281,0,0.4819691379998403
85,97,FarHighWide,0.5,0.25,0.03,0.009999999999999995,0,0.44015696899987233
85,98,ThreeLinesControl,0.0,0.0,0.1,0.015848931924611127,1,0.5826786150009866
85,99,Constant,0.1,0.1,0.1,0.009999999999999995,0,0.5170376740006759
85,100,FarHighWide,0.5,0.25,0.03,0.012589254117941666,0,0.468342369000311
85,101,FarHighNarrow,0.2,0.15,0.1,0.012589254117941666,0,0.39093452199995227
85,102,ThreeLinesControl,0.0,0.0,0.1,0.012589254117941666,1,0.5962951090004935
85,103,FarLowWide,0.03,0.25,0.5,0.015848931924611127,0,0.6340764889991988
85,104,FarHighNarrow,0.2,0.15,0.1,0.015848931924611127,1,0.4542094400003407
85,105,FarLowNarrow,0.1,0.15,0.2,0.009999999999999995,1,0.539409954999428
85,106,ThreeLinesControl,0.0,0.0,0.1,0.009999999999999995,1,0.7106089530007011
85,107,FarHighWide,0.5,0.25,0.03,0.015848931924611127,1,0.500788585999544
85,108,Constant,0.1,0.1,0.1,0.012589254117941666,0,0.5225530099996831
85,109,FarHighNarrow,0.2,0.15,0.1,0.012589254117941666,0,0.36921563999931095
85,110,FarLowWide_null,0.03,0.25,0.5,0.1,1,0.6700461890013685
85,111,ThreeLinesControl,0.0,0.0,0.1,0.00794328234724281,1,0.5243725029995403
85,112,FarLowWide,0.03,0.25,0.5,0.01995262314968879,0,0.4344148129985115
85,113,ThreeLinesControl,0.0,0.0,0.1,0.0063095734448019285,0,0.552402698998776
85,114,ThreeLinesControl,0.0,0.0,0.1,0.00794328234724281,0,0.4060547139997652
85,115,Constant,0.1,0.1,0.1,0.015848931924611127,0,0.6292874539994955
85,116,FarHighNarrow,0.2,0.15,0.1,0.015848931924611127,1,0.5057018360002985
85,117,FarLowWide,0.03,0.25,0.5,0.025118864315095794,0,0.44512527900042187
85,118,FarHighNarrow_null,0.2,0.15,0.1,0.1,0,0.7871426080000674
85,119,Constant,0.1,0.1,0.1,0.01995262314968879,0,0.7455697420009528
85,120,FarHighNarrow,0.2,0.15,0.1,0.012589254117941666,0,0.4130837510001584
85,121,FarHighNarrow,0.2,0.15,0.1,0.015848931924611127,1,0.4747445079992758
85,122,FarLowNarrow,0.1,0.15,0.2,0.00794328234724281,0,0.34186725600011414
85,123,FarLowWide_null,0.03,0.25,0.5,0.07943282347242815,1,0.44389897200017003
85,124,FarHighWide,0.5,0.25,0.03,0.012589254117941666,1,0.5300750739988871
85,125,FarLowWide,0.03,0.25,0.5,0.031622776601683784,0,0.43027709200032405
85,126,FarLowNarrow_null,0.1,0.15,0.2,0.07943282347242815,0,99
85,127,FarHighNarrow,0.2,0.15,0.1,0.012589254117941666,1,0.7066818249986682
85,128,ThreeLinesControl_null,0.0,0.0,0.1,0.1,1,0.3925939729997481
85,129,FarLowWide,0.03,0.25,0.5,0.03981071705534971,1,0.47077243700005056
85,130,FarLowWide,0.03,0.25,0.5,0.031622776601683784,1,0.5161859709987766
85,131,FarHighWide,0.5,0.25,0.03,0.009999999999999995,0,0.49119072500070615
85,132,FarLowWide_null,0.03,0.25,0.5,0.06309573444801932,1,0.48118978299862647
85,133,ThreeLinesControl,0.0,0.0,0.1,0.009999999999999995,0,0.44537161699918215
85,134,FarLowWide,0.03,0.25,0.5,0.02511886431509579,1,0.5407467240002006
85,135,Constant,0.1,0.1,0.1,0.025118864315095794,1,0.41855712399956246
85,136,FarHighNarrow,0.2,0.15,0.1,0.009999999999999995,1,0.5819485900010477
85,137,FarHighNarrow,0.2,0.15,0.1,0.00794328234724281,0,0.4520606790010788
85,138,FarLowWide_null,0.03,0.25,0.5,0.05011872336272722,1,0.33732265399885364
85,139,ThreeLinesControl,0.0,0.0,0.1,0.012589254117941666,1,0.6694352619997517
85,140,FarLowWide,0.03,0.25,0.5,0.01995262314968879,0,0.714714437001021
85,141,FarHighNarrow,0.2,0.15,0.1,0.009999999999999995,1,0.6154232240005513
85,142,FarHighWide,0.5,0.25,0.03,0.012589254117941666,1,0.5818068409989792
85,143,FarHighWide,0.5,0.25,0.03,0.009999999999999995,1,0.48398815099972126
85,144,FarLowNarrow,0.1,0.15,0.2,0.009999999999999995,0,0.5300620759990124
85,145,ThreeLinesControl,0.0,0.0,0.1,0.009999999999999995,0,0.6073644300013257
85,146,ThreeLinesControl,0.0,0.0,0.1,0.012589254117941666,1,0.534353557999566
85,147,ThreeLinesControl,0.0,0.0,0.1,0.009999999999999995,1,0.6048186980005994
85,148,ThreeLinesControl,0.0,0.0,0.1,0.00794328234724281,0,0.5309189059989876
85,149,Constant,0.1,0.1,0.1,0.01995262314968879,1,0.6744345400002203
85,150,FarHighWide,0.5,0.25,0.03,0.00794328234724281,0,0.6380773740002041
85,151,FarLowNarrow_null,0.1,0.15,0.2,0.1,1,0.5551580539995484
85,152,Constant,0.1,0.1,0.1,0.015848931924611127,0,0.7673677839993616
85,153,FarLowWide,0.03,0.25,0.5,0.025118864315095794,0,0.6205759290005517
85,154,FarHighWide,0.5,0.25,0.03,0.009999999999999995,1,0.6744840810006281
85,155,ThreeLinesControl,0.0,0.0,0.1,0.009999999999999995,0,0.7015013950003777
85,156,FarLowWide,0.03,0.25,0.5,0.031622776601683784,1,0.7874849250001716
85,157,ThreeLinesControl,0.0,0.0,0.1,0.012589254117941666,0,0.5781507229985436
85,158,FarHighWide,0.5,0.25,0.03,0.00794328234724281,0,0.6151401759998407
85,159,FarLowWide,0.03,0.25,0.5,0.02511886431509579,1,0.6214283869994688
85,160,FarHighNarrow,0.2,0.15,0.1,0.00794328234724281,1,0.6349187510004413
85,161,ThreeLinesControl,0.0,0.0,0.1,0.015848931924611127,1,0.5297133820004092
85,162,FarHighNarrow,0.2,0.15,0.1,0.0063095734448019285,0,0.6384941409996827
85,163,FarLowNarrow,0.1,0.15,0.2,0.012589254117941666,0,0.6055826070005423
85,164,FarLowWide,0.03,0.25,0.5,0.01995262314968879,0,0.5725353130001167
85,165,FarLowWide_null,0.03,0.25,0.5,0.03981071705534971,1,0.4907025739994424
85,166,FarHighNarrow,0.2,0.15,0.1,0.00794328234724281,0,0.4383146369982569
85,167,FarLowWide,0.03,0.25,0.5,0.025118864315095794,1,0.5966934230000334
85,168,Constant,0.1,0.1,0.1,0.01995262314968879,1,0.6157313100011379
85,169,FarHighNarrow,0.2,0.15,0.1,0.009999999999999995,1,0.668713241999285
85,170,FarLowWide,0.03,0.25,0.5,0.01995262314968879,0,0.6109939840007428
85,171,FarLowWide,0.03,0.25,0.5,0.025118864315095794,0,0.6223520930016093
85,172,FarHighNarrow,0.2,0.15,0.1,0.00794328234724281,0,0.644589478000853
85,173,FarLowNarrow,0.1,0.15,0.2,0.015848931924611127,0,0.6185167449984874
85,174,ThreeLinesControl,0.0,0.0,0.1,0.012589254117941666,0,0.5354767830012861
85,175,FarLowWide,0.03,0.25,0.5,0.031622776601683784,1,0.517717957000059
85,176,FarLowNarrow,0.1,0.15,0.2,0.01995262314968879,1,0.6519241380010499
85,177,FarLowWide,0.03,0.25,0.5,0.02511886431509579,1,0.546048931999394
85,178,Constant,0.1,0.1,0.1,0.015848931924611127,1,0.5202357399994071
85,179,FarHighNarrow,0.2,0.15,0.1,0.009999999999999995,1,1.118914254999254
85,180,FarLowWide,0.03,0.25,0.5,0.01995262314968879,1,0.7895978420001484
85,181,FarLowWide,0.03,0.25,0.5,0.015848931924611127,1,0.5876550579996547
85,182,FarHighWide,0.5,0.25,0.03,0.009999999999999995,0,0.6237107249999099
85,183,FarLowNarrow,0.1,0.15,0.2,0.015848931924611127,1,0.5577154849997896
85,184,ThreeLinesControl,0.0,0.0,0.1,0.015848931924611127,1,0.6281212319991027
85,185,FarHighNarrow,0.2,0.15,0.1,0.00794328234724281,1,0.7832605839994358
85,186,FarHighNarrow,0.2,0.15,0.1,0.0063095734448019285,0,0.5814767640003993
85,187,FarHighWide,0.5,0.25,0.03,0.012589254117941666,0,0.6646249619989248
85,188,FarLowWide,0.03,0.25,0.5,0.012589254117941666,0,0.518791914000758
85,189,FarLowWide,0.03,0.25,0.5,0.015848931924611127,0,0.611821656999382
85,190,FarLowNarrow,0.1,0.15,0.2,0.012589254117941666,0,0.618111306001083
85,191,FarLowNarrow,0.1,0.15,0.2,0.015848931924611127,1,0.6961177489993133
85,192,FarLowNarrow,0.1,0.15,0.2,0.012589254117941666,0,0.5502455730002112
85,193,ThreeLinesControl,0.0,0.0,0.1,0.012589254117941666,0,0.4922996709992731
85,194,Constant,0.1,0.1,0.1,0.012589254117941666,0,0.6977746009997645
85,195,FarHighNarrow_null,0.2,0.15,0.1,0.1,1,0.5275517800000671
85,196,FarHighWide,0.5,0.25,0.03,0.015848931924611127,1,0.6863381930015748
85,197,FarHighWide,0.5,0.25,0.03,0.012589254117941666,1,0.6215551950008376
85,198,FarHighNarrow,0.2,0.15,0.1,0.00794328234724281,0,0.5290746549999312
85,199,Constant,0.1,0.1,0.1,0.015848931924611127,0,0.6233062510000309
85,200,FarLowWide,0.03,0.25,0.5,0.01995262314968879,0,0.613343499999246
85,201,FarHighWide,0.5,0.25,0.03,0.009999999999999995,0,0.5195770190002804
85,202,FarHighNarrow,0.2,0.15,0.1,0.009999999999999995,0,0.9334955750000518
85,203,ThreeLinesControl,0.0,0.0,0.1,0.015848931924611127,1,0.6520089890000236
85,204,FarHighWide,0.5,0.25,0.03,0.012589254117941666,1,0.5588334770000074
85,205,ThreeLinesControl,0.0,0.0,0.1,0.012589254117941666,1,0.5414663940009632
85,206,FarLowWide,0.03,0.25,0.5,0.025118864315095794,1,0.6272650390001218
85,207,Constant,0.1,0.1,0.1,0.01995262314968879,1,0.5055634800010012
85,208,ThreeLinesControl,0.0,0.0,0.1,0.009999999999999995,0,0.49540276900006575
85,209,FarHighWide,0.5,0.25,0.03,0.009999999999999995,1,0.7404329630007851
85,210,FarLowWide,0.03,0.25,0.5,0.01995262314968879,1,0.8269437789986114
85,211,FarHighNarrow,0.2,0.15,0.1,0.012589254117941666,1,0.6092150010008481
85,212,FarLowNarrow,0.1,0.15,0.2,0.015848931924611127,1,0.5671747380001761
85,213,Constant,0.1,0.1,0.1,0.015848931924611127,1,0.6709231750010076
85,214,FarLowWide,0.03,0.25,0.5,0.015848931924611127,1,0.6369819060000736
85,215,FarLowNarrow,0.1,0.15,0.2,0.012589254117941666,0,0.39256310500059044
85,216,FarLowWide,0.03,0.25,0.5,0.012589254117941666,0,0.4387177509997855
85,217,FarLowNarrow,0.1,0.15,0.2,0.015848931924611127,1,0.7940431990009529
85,218,FarHighNarrow_null,0.2,0.15,0.1,0.07943282347242815,1,0.5199420649987587
85,219,ThreeLinesControl,0.0,0.0,0.1,0.012589254117941666,0,0.46228574799897615
85,220,Constant,0.1,0.1,0.1,0.012589254117941666,0,0.44720587499978137
85,221,FarHighWide,0.5,0.25,0.03,0.00794328234724281,0,0.5256323080011498
85,222,FarHighWide,0.5,0.25,0.03,0.009999999999999995,1,0.7227302840001357
85,223,ThreeLinesControl,0.0,0.0,0.1,0.015848931924611127,1,0.5765372640016722
85,224,Constant,0.1,0.1,0.1,0.015848931924611127,1,0.48682927200025006
85,225,FarLowWide,0.03,0.25,0.5,0.015848931924611127,1,0.46142967400010093
85,226,FarHighNarrow_null,0.2,0.15,0.1,0.06309573444801932,1,0.5553069540001161
85,227,ThreeLinesControl,0.0,0.0,0.1,0.012589254117941666,0,0.6655855139997584
85,228,ThreeLinesControl,0.0,0.0,0.1,0.015848931924611127,1,0.6482228459990438
85,229,ThreeLinesControl,0.0,0.0,0.1,0.012589254117941666,0,0.7899955729990324
85,230,FarLowNarrow,0.1,0.15,0.2,0.012589254117941666,0,0.36510787199949846
85,231,FarHighNarrow,0.2,0.15,0.1,0.009999999999999995,0,0.4409916840013466
85,232,Constant,0.1,0.1,0.1,0.012589254117941666,0,0.4382663070009585
85,233,FarHighWide_null,0.5,0.25,0.03,0.1,0,0.33706273200004944
85,234,Constant_null,0.1,0.1,0.1,0.06309573444801932,1,0.471509730001344
85,235,FarHighWide,0.5,0.25,0.03,0.00794328234724281,0,0.4534391349989164
85,236,ThreeLinesControl,0.0,0.0,0.1,0.015848931924611127,1,0.5847136570009752
85,237,FarLowWide,0.03,0.25,0.5,0.012589254117941666,0,0.5269970940007624
85,238,FarLowWide,0.03,0.25,0.5,0.015848931924611127,1,0.6051432320000458
85,239,ThreeLinesControl,0.0,0.0,0.1,0.012589254117941666,0,0.4830359849984234
85,240,Constant,0.1,0.1,0.1,0.015848931924611127,0,0.5095893760008039
85,241,FarLowWide,0.03,0.25,0.5,0.012589254117941666,0,0.37202829900161305
85,242,Constant,0.1,0.1,0.1,0.01995262314968879,1,0.4980428210001264
85,243,ThreeLinesControl,0.0,0.0,0.1,0.015848931924611127,1,0.5824046730012924
85,244,FarLowWide,0.03,0.25,0.5,0.015848931924611127,1,0.7882790639996529
85,245,Constant,0.1,0.1,0.1,0.015848931924611127,1,0.6334409119990596
85,246,FarHighNarrow,0.2,0.15,0.1,0.012589254117941666,0,0.4315526400005183
85,247,FarHighNarrow,0.2,0.15,0.1,0.015848931924611127,1,0.5738005739985965
85,248,FarLowNarrow,0.1,0.15,0.2,0.015848931924611127,1,0.7000959369997872
85,249,FarLowWide,0.03,0.25,0.5,0.012589254117941666,0,0.4501348550002149
85,250,FarLowWide,0.03,0.25,0.5,0.015848931924611127,0,0.5043107950004924
85,251,FarHighWide,0.5,0.25,0.03,0.009999999999999995,1,0.6067669610001758
85,252,FarLowNarrow,0.1,0.15,0.2,0.012589254117941666,0,0.4776845249998587
85,253,ThreeLinesControl,0.0,0.0,0.1,0.012589254117941666,0,0.46011668699975417
85,254,FarHighNarrow,0.2,0.15,0.1,0.012589254117941666,1,0.6145478419985011
85,255,FarLowWide,0.03,0.25,0.5,0.01995262314968879,0,0.5090601650008466
85,256,Constant,0.1,0.1,0.1,0.012589254117941666,1,0.6401597099993523
85,257,FarHighWide_null,0.5,0.25,0.03,0.1,1,0.5903389099985361
85,258,FarLowWide,0.03,0.25,0.5,0.025118864315095794,1,0.4914159889995062
85,259,FarHighWide,0.5,0.25,0.03,0.00794328234724281,0,0.5281246799986548
85,260,FarLowNarrow,0.1,0.15,0.2,0.015848931924611127,1,0.4456981559997075
85,261,FarLowNarrow,0.1,0.15,0.2,0.012589254117941666,0,0.4038057639991166
85,262,ThreeLinesControl,0.0,0.0,0.1,0.015848931924611127,0,0.5381822430008469
85,263,Constant,0.1,0.1,0.1,0.009999999999999995,0,0.41533478100063803
85,264,ThreeLinesControl_null,0.0,0.0,0.1,0.07943282347242815,1,0.48516662899965013
85,265,FarLowNarrow,0.1,0.15,0.2,0.015848931924611127,1,0.6194604219999746
85,266,FarHighWide,0.5,0.25,0.03,0.009999999999999995,1,0.6816623039994738
85,267,FarLowNarrow,0.1,0.15,0.2,0.012589254117941666,0,0.512351363999187
85,268,FarHighNarrow_null,0.2,0.15,0.1,0.05011872336272722,1,0.4713311689993134
85,269,FarLowWide_null,0.03,0.25,0.5,0.031622776601683784,1,0.5170540360013547
85,270,FarHighNarrow,0.2,0.15,0.1,0.009999999999999995,0,0.6322584270001244
85,271,FarHighWide_null,0.5,0.25,0.03,0.07943282347242815,1,0.5013441800001601
85,272,FarLowWide,0.03,0.25,0.5,0.01995262314968879,0,0.4884563989999151
85,273,FarLowWide,0.03,0.25,0.5,0.025118864315095794,1,0.5344658619997062
85,274,Constant,0.1,0.1,0.1,0.012589254117941666,0,0.5566304769999988
85,275,FarLowNarrow,0.1,0.15,0.2,0.015848931924611127,1,0.5765580400002364
85,276,FarLowNarrow,0.1,0.15,0.2,0.012589254117941666,0,0.8712377400006517
85,277,ThreeLinesControl,0.0,0.0,0.1,0.01995262314968879,1,0.7152441839989478
85,278,FarHighWide,0.5,0.25,0.03,0.00794328234724281,1,0.6012976639995031
85,279,Constant,0.1,0.1,0.1,0.015848931924611127,1,0.4875304250017507
85,280,ThreeLinesControl,0.0,0.0,0.1,0.015848931924611127,1,0.5484265459999733
85,281,ThreeLinesControl,0.0,0.0,0.1,0.012589254117941666,0,0.5388562030002504
85,282,Constant,0.1,0.1,0.1,0.012589254117941666,1,0.9930732889988576
85,283,FarLowNarrow,0.1,0.15,0.2,0.015848931924611127,1,0.6956831700008479
85,284,FarLowNarrow,0.1,0.15,0.2,0.012589254117941666,0,0.8850777719999314
85,285,Constant,0.1,0.1,0.1,0.009999999999999995,0,0.8034982799999852
85,286,FarLowWide,0.03,0.25,0.5,0.01995262314968879,0,0.5105301879993931
85,287,FarLowNarrow,0.1,0.15,0.2,0.015848931924611127,1,0.45187054200141574
85,288,FarHighNarrow,0.2,0.15,0.1,0.012589254117941666,1,0.8737947919998987
85,289,Constant,0.1,0.1,0.1,0.012589254117941666,1,0.6208522169999924
85,290,FarLowNarrow,0.1,0.15,0.2,0.012589254117941666,0,0.5951284750008199
85,291,FarHighNarrow,0.2,0.15,0.1,0.009999999999999995,0,0.575501854000322
85,292,FarLowNarrow,0.1,0.15,0.2,0.015848931924611127,1,0.7093133750004199
85,293,FarLowNarrow,0.1,0.15,0.2,0.012589254117941666,0,0.5236494379987562
85,294,FarLowWide,0.03,0.25,0.5,0.025118864315095794,0,0.4496833709999919
85,295,ThreeLinesControl,0.0,0.0,0.1,0.015848931924611127,1,0.48790308099887625
85,296,Constant,0.1,0.1,0.1,0.009999999999999995,0,0.5101407439997274
85,297,Constant,0.1,0.1,0.1,0.012589254117941666,0,0.5643020769985014
85,298,FarLowWide_null,0.03,0.25,0.5,0.02511886431509579,1,0.5144531409987394
85,299,FarLowNarrow,0.1,0.15,0.2,0.015848931924611127,0,0.8011811710002803
85,300,FarLowWide,0.03,0.25,0.5,0.031622776601683784,1,0.5745988309990935
85,301,FarLowWide,0.03,0.25,0.5,0.02511886431509579,1,0.44461784299892315
85,302,Constant,0.1,0.1,0.1,0.015848931924611127,1,0.5515926999996736
85,303,FarHighNarrow,0.2,0.15,0.1,0.012589254117941666,1,0.8461952580000798
85,304,Constant,0.1,0.1,0.1,0.012589254117941666,1,0.7163129780001327
85,305,FarHighWide,0.5,0.25,0.03,0.0063095734448019285,0,0.5835614890002034
85,306,FarHighWide,0.5,0.25,0.03,0.00794328234724281,0,0.5174379080017388
85,307,FarLowWide,0.03,0.25,0.5,0.01995262314968879,0,0.6025338159997773
85,308,ThreeLinesControl,0.0,0.0,0.1,0.012589254117941666,0,0.5035388189990044
85,309,ThreeLinesControl,0.0,0.0,0.1,0.015848931924611127,1,0.5339393930007645
85,310,FarLowNarrow,0.1,0.15,0.2,0.01995262314968879,1,0.6601670939999167
85,311,FarHighWide_null,0.5,0.25,0.03,0.06309573444801932,1,0.5221525589986413
85,312,ThreeLinesControl_null,0.0,0.0,0.1,0.06309573444801932,1,0.823273097999845
85,313,Constant,0.1,0.1,0.1,0.009999999999999995,1,0.5743043439997564
85,314,FarHighWide,0.5,0.25,0.03,0.009999999999999995,1,0.6925219300010212
85,315,Constant,0.1,0.1,0.1,0.00794328234724281,0,0.4766515819992492
85,316,ThreeLinesControl,0.0,0.0,0.1,0.012589254117941666,0,0.7854753490009898
85,317,Constant,0.1,0.1,0.1,0.009999999999999995,1,0.5099823319997085
85,318,Constant_null,0.1,0.1,0.1,0.05011872336272722,1,0.5053501330003201
85,319,FarHighNarrow,0.2,0.15,0.1,0.009999999999999995,1,0.6392137099992397
85,320,FarHighNarrow_null,0.2,0.15,0.1,0.03981071705534971,1,0.50961185900087
85,321,FarHighWide,0.5,0.25,0.03,0.00794328234724281,1,0.6726075850001507
85,322,FarHighNarrow,0.2,0.15,0.1,0.00794328234724281,1,0.5825579409993225
85,323,FarHighNarrow,0.2,0.15,0.1,0.0063095734448019285,0,0.4524236260003818
85,324,FarLowNarrow,0.1,0.15,0.2,0.015848931924611127,0,0.4663140749999002
85,325,FarHighNarrow,0.2,0.15,0.1,0.00794328234724281,0,0.5753811619997578
85,326,FarHighNarrow_null,0.2,0.15,0.1,0.031622776601683784,1,0.4693524920003256
85,327,FarHighNarrow,0.2,0.15,0.1,0.009999999999999995,1,0.6277233390010224
85,328,FarHighWide,0.5,0.25,0.03,0.0063095734448019285,0,0.6978302489987982
85,329,ThreeLinesControl,0.0,0.0,0.1,0.015848931924611127,1,0.6400735389997863
85,330,FarHighNarrow,0.2,0.15,0.1,0.00794328234724281,1,0.7272028749994206
85,331,FarLowWide,0.03,0.25,0.5,0.025118864315095794,1,0.5654674590005015
85,332,FarLowWide,0.03,0.25,0.5,0.01995262314968879,1,0.4904256669997267
85,333,FarHighNarrow,0.2,0.15,0.1,0.0063095734448019285,1,0.4325525889998971
85,334,FarLowNarrow,0.1,0.15,0.2,0.01995262314968879,1,0.6294493629993667
85,335,FarLowWide,0.03,0.25,0.5,0.015848931924611127,1,0.6156661870008975
85,336,FarHighWide,0.5,0.25,0.03,0.00794328234724281,1,0.7979728490008711
85,337,FarLowWide,0.03,0.25,0.5,0.012589254117941666,0,0.6173022880011558
85,338,Constant,0.1,0.1,0.1,0.00794328234724281,1,0.4950360719994933
85,339,Constant_null,0.1,0.1,0.1,0.03981071705534971,1,0.7734352009993017
85,340,FarHighNarrow,0.2,0.15,0.1,0.005011872336272719,0,0.6426505929994164
85,341,FarHighNarrow,0.2,0.15,0.1,0.0063095734448019285,0,0.4888144830001693
85,342,ThreeLinesControl,0.0,0.0,0.1,0.012589254117941666,1,0.5188760399996681
85,343,FarLowNarrow,0.1,0.15,0.2,0.015848931924611127,1,0.6447362220005743
85,344,Constant,0.1,0.1,0.1,0.0063095734448019285,0,0.4101287470002717
85,345,Constant,0.1,0.1,0.1,0.00794328234724281,0,1.0574557939999067
85,346,FarHighNarrow,0.2,0.15,0.1,0.00794328234724281,0,0.5915370350012381
85,347,Constant,0.1,0.1,0.1,0.009999999999999995,0,0.48671058600120887
85,348,Constant,0.1,0.1,0.1,0.012589254117941666,0,0.4334842309999658
85,349,FarLowWide,0.03,0.25,0.5,0.015848931924611127,0,0.4156908810000459
85,350,FarHighWide,0.5,0.25,0.03,0.0063095734448019285,0,0.6379969139998138
85,351,FarHighWide,0.5,0.25,0.03,0.00794328234724281,0,0.5053357469987532
85,352,ThreeLinesControl,0.0,0.0,0.1,0.009999999999999995,0,0.5031671640008426
85,353,FarLowNarrow_null,0.1,0.15,0.2,0.07943282347242815,1,0.4214237010000943
85,354,FarHighNarrow,0.2,0.15,0.1,0.009999999999999995,0,0.42456342200057406
85,355,FarLowWide,0.03,0.25,0.5,0.01995262314968879,0,0.39884549800081004
85,356,FarLowWide,0.03,0.25,0.5,0.025118864315095794,1,0.7160767929999565
85,357,ThreeLinesControl,0.0,0.0,0.1,0.012589254117941666,0,0.48229700599949865
85,358,Constant,0.1,0.1,0.1,0.015848931924611127,0,0.744180370000322
85,359,Constant_null,0.1,0.1,0.1,0.031622776601683784,1,0.5332087839997257
85,360,FarLowWide_null,0.03,0.25,0.5,0.01995262314968879,1,0.4214588470003946
85,361,FarHighWide_null,0.5,0.25,0.03,0.05011872336272722,1,0.6037350709993916
85,362,FarHighWide,0.5,0.25,0.03,0.009999999999999995,0,0.522038983001039
85,363,Constant,0.1,0.1,0.1,0.01995262314968879,1,0.6241438230008498
85,364,FarHighNarrow,0.2,0.15,0.1,0.012589254117941666,0,0.5667023500009236
85,365,FarHighWide,0.5,0.25,0.03,0.012589254117941666,1,0.6767327399993519
85,366,FarLowWide,0.03,0.25,0.5,0.01995262314968879,1,0.6485766400001012
85,367,Constant,0.1,0.1,0.1,0.015848931924611127,1,0.7106671140008984
85,368,FarHighWide,0.5,0.25,0.03,0.009999999999999995,1,0.7001979990000109
85,369,FarHighWide,0.5,0.25,0.03,0.00794328234724281,1,0.7035773959996732
85,370,FarHighNarrow_null,0.2,0.15,0.1,0.02511886431509579,1,0.4141237519997958
85,371,Constant,0.1,0.1,0.1,0.012589254117941666,0,0.42839744099910604
85,372,FarLowWide,0.03,0.25,0.5,0.015848931924611127,0,0.6317122869986633
85,373,FarHighNarrow,0.2,0.15,0.1,0.015848931924611127,1,0.5573322889995325
85,374,FarHighNarrow,0.2,0.15,0.1,0.012589254117941666,0,0.7868693989985331
85,375,FarHighNarrow_null,0.2,0.15,0.1,0.01995262314968879,1,0.6168464290003612
85,376,ThreeLinesControl,0.0,0.0,0.1,0.015848931924611127,0,1.1029111339994415
85,377,FarHighNarrow_null,0.2,0.15,0.1,0.015848931924611127,1,0.7811689430000115
85,378,FarHighNarrow,0.2,0.15,0.1,0.015848931924611127,1,0.5713793619997887
85,379,FarLowNarrow,0.1,0.15,0.2,0.012589254117941666,0,0.6015303160002077
85,380,FarHighNarrow,0.2,0.15,0.1,0.012589254117941666,0,0.44795355400128756
85,381,FarLowNarrow,0.1,0.15,0.2,0.015848931924611127,0,0.40711740600090707
85,382,ThreeLinesControl,0.0,0.0,0.1,0.01995262314968879,0,0.6775194940000802
85,383,FarHighWide_null,0.5,0.25,0.03,0.03981071705534971,1,0.5850747229997069
85,384,Constant,0.1,0.1,0.1,0.015848931924611127,1,0.6391597059991909
85,385,FarHighNarrow,0.2,0.15,0.1,0.015848931924611127,1,0.5932262749993242
85,386,FarLowNarrow,0.1,0.15,0.2,0.01995262314968879,1,0.6231943229995522
85,387,Constant,0.1,0.1,0.1,0.012589254117941666,1,0.5657791900011944
85,388,FarLowNarrow_null,0.1,0.15,0.2,0.06309573444801932,1,0.5845732720008527
85,389,FarLowWide,0.03,0.25,0.5,0.01995262314968879,1,0.6231120579996059
85,390,ThreeLinesControl_null,0.0,0.0,0.1,0.05011872336272722,1,0.5010404790009488
85,391,FarHighNarrow,0.2,0.15,0.1,0.012589254117941666,1,0.5623074649993214
85,392,FarLowWide_null,0.03,0.25,0.5,0.015848931924611127,1,0.5602256260008289
85,393,FarHighNarrow,0.2,0.15,0.1,0.009999999999999995,1,0.5174972710010479
85,394,FarLowNarrow,0.1,0.15,0.2,0.015848931924611127,1,0.5078147069998522
85,395,FarLowNarrow,0.1,0.15,0.2,0.012589254117941666,0,0.43392073699942557
85,396,FarLowNarrow,0.1,0.15,0.2,0.015848931924611127,1,0.4400462779994996
85,397,FarHighWide_null,0.5,0.25,0.03,0.031622776601683784,1,1.0555654220006545
85,398,FarLowWide,0.03,0.25,0.5,0.015848931924611127,0,0.5495761479996872
85,399,FarLowWide,0.03,0.25,0.5,0.01995262314968879,0,0.45757081199917593
85,400,FarLowNarrow,0.1,0.15,0.2,0.012589254117941666,1,0.5355865940000513
85,401,FarHighNarrow_null,0.2,0.15,0.1,0.012589254117941666,1,0.48461152099844185
85,402,FarHighNarrow,0.2,0.15,0.1,0.00794328234724281,0,0.38390082900150446
85,403,FarLowWide,0.03,0.25,0.5,0.025118864315095794,1,0.4941633800008276
85,404,FarHighWide,0.5,0.25,0.03,0.0063095734448019285,1,0.5144912859996111
85,405,ThreeLinesControl,0.0,0.0,0.1,0.025118864315095794,1,0.6155033929990168
85,406,FarHighNarrow,0.2,0.15,0.1,0.009999999999999995,0,0.4852277170011803
85,407,FarHighWide,0.5,0.25,0.03,0.005011872336272719,0,0.6037216429995169
85,408,FarHighNarrow,0.2,0.15,0.1,0.012589254117941666,0,0.5143887649992394
85,409,FarHighNarrow,0.2,0.15,0.1,0.015848931924611127,1,0.5272852879988932
85,410,FarLowWide,0.03,0.25,0.5,0.01995262314968879,0,0.3501922049999848
85,411,Constant_null,0.1,0.1,0.1,0.02511886431509579,1,0.45230208999964816
85,412,FarLowWide,0.03,0.25,0.5,0.025118864315095794,0,0.46610164099911344
85,413,FarHighNarrow,0.2,0.15,0.1,0.012589254117941666,1,0.8318295030003355
85,414,ThreeLinesControl,0.0,0.0,0.1,0.01995262314968879,1,0.5266646260006382
85,415,FarHighNarrow,0.2,0.15,0.1,0.009999999999999995,1,0.8028104230015742
85,416,ThreeLinesControl,0.0,0.0,0.1,0.015848931924611127,1,0.5440854850003234
85,417,FarHighWide,0.5,0.25,0.03,0.0063095734448019285,1,0.5260253920005198
85,418,FarHighNarrow,0.2,0.15,0.1,0.00794328234724281,1,0.4893252889996802
85,419,FarHighWide,0.5,0.25,0.03,0.005011872336272719,0,0.5512754200008203
85,420,FarLowWide,0.03,0.25,0.5,0.031622776601683784,1,0.6356194589989173
85,421,FarHighWide,0.5,0.25,0.03,0.0063095734448019285,0,0.4896321260002878
85,422,FarLowWide,0.03,0.25,0.5,0.02511886431509579,1,0.40653519700026663
85,423,ThreeLinesControl,0.0,0.0,0.1,0.012589254117941666,1,0.4533903850006027
85,424,FarHighNarrow,0.2,0.15,0.1,0.0063095734448019285,0,0.5311288220000279
85,425,FarHighWide,0.5,0.25,0.03,0.00794328234724281,0,0.7532453799994983
85,426,FarHighWide,0.5,0.25,0.03,0.009999999999999995,1,0.4874946709987853
85,427,FarHighWide,0.5,0.25,0.03,0.00794328234724281,1,0.4696145819998492
85,428,FarLowWide,0.03,0.25,0.5,0.01995262314968879,0,0.43470265900032246
85,429,ThreeLinesControl,0.0,0.0,0.1,0.009999999999999995,1,0.5542766149992531
85,430,Constant,0.1,0.1,0.1,0.009999999999999995,1,0.45661392900001374
85,431,ThreeLinesControl,0.0,0.0,0.1,0.00794328234724281,1,0.5151967279998644
85,432,ThreeLinesControl,0.0,0.0,0.1,0.0063095734448019285,0,0.4093031200009136
85,433,FarHighNarrow,0.2,0.15,0.1,0.00794328234724281,0,0.5513068869986455
85,434,ThreeLinesControl,0.0,0.0,0.1,0.00794328234724281,0,0.41032165700016776
85,435,ThreeLinesControl,0.0,0.0,0.1,0.009999999999999995,1,0.5527767929997935
85,436,Constant,0.1,0.1,0.1,0.00794328234724281,1,0.5987360550006997
85,437,ThreeLinesControl,0.0,0.0,0.1,0.00794328234724281,0,0.4339853179990314
85,438,FarHighWide,0.5,0.25,0.03,0.0063095734448019285,0,0.4079436159991019
85,439,FarHighNarrow,0.2,0.15,0.1,0.009999999999999995,1,0.5346418180015462
85,440,Constant,0.1,0.1,0.1,0.0063095734448019285,1,0.644825936999041
85,441,Constant,0.1,0.1,0.1,0.005011872336272719,0,0.4266712999997253
85,442,FarLowNarrow,0.1,0.15,0.2,0.009999999999999995,1,0.5288666309988912
85,443,FarLowWide,0.03,0.25,0.5,0.025118864315095794,1,0.5109089859997766
85,444,Constant,0.1,0.1,0.1,0.0063095734448019285,0,0.4599886330015579
85,445,Constant,0.1,0.1,0.1,0.00794328234724281,0,0.4341537709988188
85,446,FarHighWide,0.5,0.25,0.03,0.00794328234724281,1,0.6727591449998727
85,447,FarLowWide,0.03,0.25,0.5,0.01995262314968879,1,0.6867417070006923
85,448,FarLowWide,0.03,0.25,0.5,0.015848931924611127,0,0.40155690100073116
85,449,ThreeLinesControl,0.0,0.0,0.1,0.009999999999999995,1,0.5596591670000635
85,450,FarHighWide,0.5,0.25,0.03,0.0063095734448019285,1,0.5791108250014076
85,451,FarHighNarrow_null,0.2,0.15,0.1,0.009999999999999995,1,0.633248950000052
85,452,Constant_null,0.1,0.1,0.1,0.01995262314968879,1,0.503038299999389
85,453,FarLowWide,0.03,0.25,0.5,0.01995262314968879,1,0.5635531030002312
85,454,FarHighWide,0.5,0.25,0.03,0.005011872336272719,0,0.5775705550004204
85,455,Constant,0.1,0.1,0.1,0.009999999999999995,0,0.47832472899972345
85,456,FarHighNarrow,0.2,0.15,0.1,0.00794328234724281,0,0.636840208000649
85,457,FarHighWide,0.5,0.25,0.03,0.0063095734448019285,0,0.5869923999998719
85,458,FarLowWide_null,0.03,0.25,0.5,0.012589254117941666,1,0.9373018740006955
85,459,FarHighNarrow,0.2,0.15,0.1,0.009999999999999995,0,0.6152366229998734
85,460,FarLowNarrow,0.1,0.15,0.2,0.00794328234724281,1,0.7334882100003597
85,461,FarHighWide,0.5,0.25,0.03,0.00794328234724281,0,0.522720979000951
85,462,FarLowNarrow,0.1,0.15,0.2,0.0063095734448019285,0,0.552663806000055
85,463,Constant,0.1,0.1,0.1,0.012589254117941666,1,0.5028979230010009
85,464,Constant,0.1,0.1,0.1,0.009999999999999995,1,0.6178301640011341
85,465,Constant,0.1,0.1,0.1,0.00794328234724281,0,0.4241096749992721
85,466,ThreeLinesControl,0.0,0.0,0.1,0.00794328234724281,0,0.4113795459998073
85,467,FarLowWide,0.03,0.25,0.5,0.015848931924611127,1,0.5534870470000897
85,468,FarHighNarrow,0.2,0.15,0.1,0.012589254117941666,0,0.4474155320003774
85,469,FarLowWide,0.03,0.25,0.5,0.012589254117941666,0,0.435549710999112
85,470,FarHighNarrow,0.2,0.15,0.1,0.015848931924611127,0,0.6897245489999477
85,471,ThreeLinesControl,0.0,0.0,0.1,0.009999999999999995,0,0.4801387320003414
85,472,ThreeLinesControl_null,0.0,0.0,0.1,0.03981071705534971,1,0.4771967790002236
85,473,ThreeLinesControl,0.0,0.0,0.1,0.012589254117941666,0,0.43616317700070795
85,474,ThreeLinesControl,0.0,0.0,0.1,0.015848931924611127,1,0.5294239659997402
85,475,FarHighWide,0.5,0.25,0.03,0.009999999999999995,0,0.6316316079992248
85,476,FarLowNarrow,0.1,0.15,0.2,0.00794328234724281,1,0.49538816700078314
85,477,FarLowNarrow,0.1,0.15,0.2,0.0063095734448019285,0,0.45308081500115804
85,478,FarLowWide,0.03,0.25,0.5,0.015848931924611127,0,0.515573675998894
85,479,FarHighWide,0.5,0.25,0.03,0.012589254117941666,0,0.9212385850005376
85,480,Constant,0.1,0.1,0.1,0.009999999999999995,0,0.43911503099843685
85,481,FarHighWide,0.5,0.25,0.03,0.015848931924611127,1,0.8288915510001971
85,482,FarHighNarrow,0.2,0.15,0.1,0.01995262314968879,0,0.5069457670015254
85,483,FarLowWide,0.03,0.25,0.5,0.01995262314968879,1,0.657608737999908
85,484,FarLowWide,0.03,0.25,0.5,0.015848931924611127,0,0.42354073299975425
85,485,FarHighNarrow,0.2,0.15,0.1,0.025118864315095794,1,0.48582739099947503
85,486,Constant,0.1,0.1,0.1,0.012589254117941666,1,0.6266808340005809
85,487,FarLowWide_null,0.03,0.25,0.5,0.009999999999999995,1,0.3451177610004379
85,488,FarLowNarrow,0.1,0.15,0.2,0.00794328234724281,1,0.47899004600003536
85,489,ThreeLinesControl,0.0,0.0,0.1,0.012589254117941666,0,0.5144013589997485
85,490,FarHighNarrow,0.2,0.15,0.1,0.01995262314968879,0,0.4322845690003305
85,491,FarLowNarrow,0.1,0.15,0.2,0.0063095734448019285,0,0.6467799769998237
85,492,FarHighWide,0.5,0.25,0.03,0.012589254117941666,1,0.6098370109993994
85,493,ThreeLinesControl,0.0,0.0,0.1,0.015848931924611127,1,0.6159782840004482
85,494,FarLowWide,0.03,0.25,0.5,0.01995262314968879,1,0.5169864429990412
85,495,FarHighNarrow,0.2,0.15,0.1,0.025118864315095794,1,0.3782999099985318
85,496,ThreeLinesControl,0.0,0.0,0.1,0.012589254117941666,1,0.5204253190004238
85,497,FarLowWide,0.03,0.25,0.5,0.015848931924611127,1,0.5185020440003427
85,498,FarLowWide,0.03,0.25,0.5,0.012589254117941666,0,0.4288502929994138
85,499,ThreeLinesControl,0.0,0.0,0.1,0.009999999999999995,1,0.6188097600006586
85,500,Constant_null,0.1,0.1,0.1,0.015848931924611127,0,0.5692701869993471
85,501,FarLowWide,0.03,0.25,0.5,0.015848931924611127,0,0.4483136529997864
85,502,ThreeLinesControl,0.0,0.0,0.1,0.00794328234724281,0,0.588376428000629
85,503,FarHighWide,0.5,0.25,0.03,0.009999999999999995,0,0.6501983760008443
85,504,FarLowWide,0.03,0.25,0.5,0.01995262314968879,0,0.4566539280003781
85,505,FarLowWide,0.03,0.25,0.5,0.025118864315095794,1,0.5307977440006653
85,506,Constant,0.1,0.1,0.1,0.009999999999999995,1,0.5288426420011092
85,507,FarHighWide,0.5,0.25,0.03,0.012589254117941666,0,0.6386602620004851
85,508,FarHighNarrow,0.2,0.15,0.1,0.01995262314968879,1,0.6821798250002757
85,509,ThreeLinesControl,0.0,0.0,0.1,0.009999999999999995,0,0.5203823790016031
85,510,FarHighNarrow,0.2,0.15,0.1,0.015848931924611127,1,0.541354107999723
85,511,ThreeLinesControl,0.0,0.0,0.1,0.012589254117941666,1,0.5317428079997626
85,512,FarLowNarrow,0.1,0.15,0.2,0.00794328234724281,0,0.5046206530005293
85,513,FarLowNarrow,0.1,0.15,0.2,0.009999999999999995,0,0.5196029919989087
85,514,Constant,0.1,0.1,0.1,0.00794328234724281,1,0.5172642819998146
85,515,ThreeLinesControl,0.0,0.0,0.1,0.009999999999999995,1,0.5632267170003615
85,516,Constant,0.1,0.1,0.1,0.0063095734448019285,0,0.5136074470010499
85,517,FarHighWide,0.5,0.25,0.03,0.015848931924611127,1,0.440741791999244
85,518,FarHighNarrow,0.2,0.15,0.1,0.012589254117941666,1,0.4226975029996538
85,519,FarLowNarrow,0.1,0.15,0.2,0.012589254117941666,1,0.6594652839994524
85,520,FarHighWide,0.5,0.25,0.03,0.012589254117941666,1,0.624848639999982
85,521,FarHighWide,0.5,0.25,0.03,0.009999999999999995,1,0.9163189480004803
85,522,FarLowWide,0.03,0.25,0.5,0.01995262314968879,0,0.49828750800043053
85,523,Constant,0.1,0.1,0.1,0.00794328234724281,0,0.5763870709997718
85,524,FarLowWide,0.03,0.25,0.5,0.025118864315095794,1,0.6275141820005956
85,525,FarHighWide,0.5,0.25,0.03,0.00794328234724281,1,0.4737911370011716
85,526,FarLowNarrow,0.1,0.15,0.2,0.009999999999999995,0,0.5359500430004118
85,527,Constant,0.1,0.1,0.1,0.009999999999999995,1,0.4926957860006951
85,528,FarHighNarrow,0.2,0.15,0.1,0.009999999999999995,1,0.4032335480005713
85,529,FarLowWide,0.03,0.25,0.5,0.01995262314968879,0,0.4171399070000916
85,530,Constant_null,0.1,0.1,0.1,0.01995262314968879,1,0.45514188800007105
85,531,FarHighNarrow,0.2,0.15,0.1,0.00794328234724281,1,0.509893121999994
85,532,FarHighNarrow,0.2,0.15,0.1,0.0063095734448019285,0,0.604275649999181
85,533,FarHighWide,0.5,0.25,0.03,0.0063095734448019285,0,0.7299843820001115
85,534,FarHighWide,0.5,0.25,0.03,0.00794328234724281,1,0.6251886769987323
85,535,ThreeLinesControl,0.0,0.0,0.1,0.00794328234724281,0,0.5970589150001615
85,536,ThreeLinesControl,0.0,0.0,0.1,0.009999999999999995,0,0.3954012079993845
85,537,Constant,0.1,0.1,0.1,0.00794328234724281,0,0.377414623999357
85,538,FarLowNarrow,0.1,0.15,0.2,0.012589254117941666,1,0.628687173999424
85,539,ThreeLinesControl,0.0,0.0,0.1,0.012589254117941666,0,0.4347036380004283
85,540,FarLowWide_null,0.03,0.25,0.5,0.00794328234724281,1,0.3488736589988548
85,541,FarLowWide,0.03,0.25,0.5,0.025118864315095794,1,0.49129179299961834
85,542,FarLowNarrow_null,0.1,0.15,0.2,0.05011872336272722,1,0.5612146189996565
85,543,ThreeLinesControl_null,0.0,0.0,0.1,0.031622776601683784,1,0.415468384999258
85,544,FarHighNarrow,0.2,0.15,0.1,0.00794328234724281,0,0.41356332499890414
85,545,FarLowNarrow,0.1,0.15,0.2,0.009999999999999995,0,0.4515348639997683
85,546,FarLowWide,0.03,0.25,0.5,0.01995262314968879,0,0.8563173570000799
85,547,FarLowNarrow,0.1,0.15,0.2,0.012589254117941666,0,0.6230155510002078
85,548,FarLowNarrow,0.1,0.15,0.2,0.015848931924611127,1,0.6053033829994092
85,549,FarHighNarrow,0.2,0.15,0.1,0.009999999999999995,0,1.1326521920000232
85,550,FarHighNarrow,0.2,0.15,0.1,0.012589254117941666,0,0.5465646370012109
85,551,FarHighWide,0.5,0.25,0.03,0.0063095734448019285,0,0.5745059450000554
85,552,FarLowNarrow,0.1,0.15,0.2,0.012589254117941666,0,0.5886181549994944
85,553,FarLowWide,0.03,0.25,0.5,0.025118864315095794,1,0.5138640379991557
85,554,Constant,0.1,0.1,0.1,0.009999999999999995,0,0.5166393750005227
85,555,FarLowNarrow,0.1,0.15,0.2,0.015848931924611127,1,0.6111976339998364
85,556,FarHighWide,0.5,0.25,0.03,0.00794328234724281,1,0.7450071089988342
85,557,Constant,0.1,0.1,0.1,0.012589254117941666,0,0.5005310209999152
85,558,FarHighWide_null,0.5,0.25,0.03,0.02511886431509579,1,0.5621742519997497
85,559,FarHighWide,0.5,0.25,0.03,0.0063095734448019285,0,0.5447703149984591
85,560,FarLowNarrow,0.1,0.15,0.2,0.012589254117941666,0,0.45473431600112235
85,561,FarHighWide,0.5,0.25,0.03,0.00794328234724281,1,0.5883898520005459
85,562,FarHighNarrow,0.2,0.15,0.1,0.015848931924611127,1,0.6262465220006561
85,563,FarLowNarrow,0.1,0.15,0.2,0.015848931924611127,1,0.4324425600007089
85,564,FarLowWide,0.03,0.25,0.5,0.01995262314968879,0,0.49432005000016943
85,565,FarLowWide,0.03,0.25,0.5,0.025118864315095794,1,0.4850768969990895
85,566,FarHighWide,0.5,0.25,0.03,0.0063095734448019285,0,0.6589749319991824
85,567,FarLowNarrow,0.1,0.15,0.2,0.012589254117941666,1,0.8469972780003445
85,568,ThreeLinesControl,0.0,0.0,0.1,0.015848931924611127,1,0.5165671620015928
85,569,FarHighWide,0.5,0.25,0.03,0.00794328234724281,1,0.6180272029996559
85,570,FarLowWide,0.03,0.25,0.5,0.01995262314968879,1,0.5333188969998446
85,571,FarHighNarrow,0.2,0.15,0.1,0.012589254117941666,1,0.4993667919989093
85,572,Constant,0.1,0.1,0.1,0.015848931924611127,1,0.4172861569986708
85,573,FarHighWide,0.5,0.25,0.03,0.0063095734448019285,0,0.652811460000521
85,574,FarHighNarrow,0.2,0.15,0.1,0.009999999999999995,0,0.7146436180009914
85,575,ThreeLinesControl,0.0,0.0,0.1,0.012589254117941666,1,0.7770591669996065
85,576,FarHighNarrow_null,0.2,0.15,0.1,0.00794328234724281,1,0.6230840099997295
85,577,FarHighWide,0.5,0.25,0.03,0.00794328234724281,0,0.7815461659993161
85,578,Constant,0.1,0.1,0.1,0.012589254117941666,1,0.4997907529996155
85,579,FarLowWide,0.03,0.25,0.5,0.015848931924611127,0,0.49019595500067226
85,580,FarLowNarrow,0.1,0.15,0.2,0.009999999999999995,1,0.5906423579999682
85,581,FarHighNarrow,0.2,0.15,0.1,0.012589254117941666,0,0.6533106480001152
85,582,FarLowNarrow,0.1,0.15,0.2,0.00794328234724281,1,0.652513128999999
85,583,FarLowWide,0.03,0.25,0.5,0.01995262314968879,1,0.9317393230012385
85,584,Constant,0.1,0.1,0.1,0.009999999999999995,0,0.6304355970005417
85,585,FarLowNarrow,0.1,0.15,0.2,0.0063095734448019285,0,0.43583326899897656
85,586,Constant,0.1,0.1,0.1,0.012589254117941666,1,0.52767199399932
85,587,ThreeLinesControl,0.0,0.0,0.1,0.009999999999999995,0,0.7739602330002526
85,588,FarHighWide,0.5,0.25,0.03,0.009999999999999995,1,0.539948429001015
85,589,FarHighWide,0.5,0.25,0.03,0.00794328234724281,1,0.4871884410003986
85,590,ThreeLinesControl,0.0,0.0,0.1,0.012589254117941666,1,0.5812025489994994
85,591,ThreeLinesControl,0.0,0.0,0.1,0.009999999999999995,1,0.531572297000821
85,592,ThreeLinesControl,0.0,0.0,0.1,0.00794328234724281,1,0.5053371419999166
85,593,ThreeLinesControl,0.0,0.0,0.1,0.0063095734448019285,0,0.5747176760014554
85,594,FarHighWide,0.5,0.25,0.03,0.0063095734448019285,0,0.5809467670005688
85,595,Constant,0.1,0.1,0.1,0.009999999999999995,0,0.5792709149991424
85,596,FarHighWide,0.5,0.25,0.03,0.00794328234724281,1,0.5612625700014178
85,597,ThreeLinesControl,0.0,0.0,0.1,0.00794328234724281,0,0.5997379910004383
85,598,Constant,0.1,0.1,0.1,0.012589254117941666,0,0.3910314240001753
85,599,FarHighNarrow,0.2,0.15,0.1,0.015848931924611127,1,0.6686920640004246
85,600,FarLowWide_null,0.03,0.25,0.5,0.0063095734448019285,1,0.44550448700101697
85,601,FarHighNarrow,0.2,0.15,0.1,0.012589254117941666,0,0.37612242300019716
85,602,Constant,0.1,0.1,0.1,0.015848931924611127,0,0.3493285009990359
85,603,FarLowNarrow,0.1,0.15,0.2,0.00794328234724281,0,0.4244653349996952
85,604,FarHighWide,0.5,0.25,0.03,0.0063095734448019285,0,0.5105000860003202
85,605,ThreeLinesControl,0.0,0.0,0.1,0.009999999999999995,0,0.49230029300088063
85,606,ThreeLinesControl,0.0,0.0,0.1,0.012589254117941666,0,0.5290534080013458
85,607,FarHighNarrow,0.2,0.15,0.1,0.015848931924611127,1,0.446979554999416
85,608,FarHighNarrow,0.2,0.15,0.1,0.012589254117941666,1,0.5413929219994316
85,609,FarHighWide,0.5,0.25,0.03,0.00794328234724281,0,0.667412853001224
85,610,FarHighWide,0.5,0.25,0.03,0.009999999999999995,0,0.513728121000895
85,611,Constant,0.1,0.1,0.1,0.01995262314968879,1,0.5276795369991305
85,612,FarHighNarrow,0.2,0.15,0.1,0.009999999999999995,1,0.5728443719999632
85,613,FarHighNarrow,0.2,0.15,0.1,0.00794328234724281,1,0.5231086229996436
85,614,FarLowNarrow,0.1,0.15,0.2,0.009999999999999995,1,0.5136096040005214
85,615,Constant,0.1,0.1,0.1,0.015848931924611127,1,0.4551233769998362
85,616,FarLowNarrow,0.1,0.15,0.2,0.00794328234724281,1,0.4709494809994794
85,617,FarHighWide,0.5,0.25,0.03,0.012589254117941666,1,0.4816764349998266
85,618,Constant,0.1,0.1,0.1,0.012589254117941666,1,0.3676643700000568
85,619,FarLowWide,0.03,0.25,0.5,0.015848931924611127,0,0.44068654400143714
85,620,FarLowNarrow,0.1,0.15,0.2,0.0063095734448019285,0,0.45506180099982885
85,621,FarHighNarrow,0.2,0.15,0.1,0.0063095734448019285,0,0.6611765770012425
85,622,FarLowWide,0.03,0.25,0.5,0.01995262314968879,0,0.5453972769992106
85,623,FarLowWide,0.03,0.25,0.5,0.025118864315095794,1,0.5433130869987508
85,624,FarLowNarrow,0.1,0.15,0.2,0.00794328234724281,0,0.46969592399909743
85,625,Constant,0.1,0.1,0.1,0.009999999999999995,0,0.4907717810001486
85,626,FarHighNarrow_null,0.2,0.15,0.1,0.0063095734448019285,1,0.5208593629995448
85,627,FarHighNarrow,0.2,0.15,0.1,0.00794328234724281,0,0.36705676299970946
85,628,FarHighNarrow,0.2,0.15,0.1,0.009999999999999995,0,0.44512678399951255
85,629,ThreeLinesControl,0.0,0.0,0.1,0.015848931924611127,1,0.48348354799964
85,630,ThreeLinesControl_null,0.0,0.0,0.1,0.02511886431509579,1,0.6404931079996459
85,631,FarHighNarrow,0.2,0.15,0.1,0.012589254117941666,0,0.5024821590013744
85,632,Constant,0.1,0.1,0.1,0.012589254117941666,0,0.45359413900041545
85,633,FarHighWide,0.5,0.25,0.03,0.009999999999999995,1,0.7132035529994027
85,634,ThreeLinesControl,0.0,0.0,0.1,0.012589254117941666,0,0.6861760940009844
85,635,FarLowWide,0.03,0.25,0.5,0.01995262314968879,0,0.4442543069999374
85,636,FarHighNarrow,0.2,0.15,0.1,0.015848931924611127,1,0.5604064859999198
85,637,Constant,0.1,0.1,0.1,0.015848931924611127,1,0.3811063680004736
85,638,FarLowWide,0.03,0.25,0.5,0.025118864315095794,1,0.35461944400049106
85,639,FarHighNarrow,0.2,0.15,0.1,0.012589254117941666,1,0.43282577600075456
85,640,FarHighNarrow,0.2,0.15,0.1,0.009999999999999995,1,0.48575089699988894
85,641,Constant,0.1,0.1,0.1,0.012589254117941666,1,0.42800563399941893
85,642,FarHighWide,0.5,0.25,0.03,0.00794328234724281,1,0.5703469829986716
85,643,FarHighWide,0.5,0.25,0.03,0.0063095734448019285,0,0.6320633490013279
85,644,FarHighNarrow,0.2,0.15,0.1,0.00794328234724281,0,0.48814620499979355
85,645,Constant,0.1,0.1,0.1,0.009999999999999995,0,0.45369941699937044
85,646,FarHighNarrow,0.2,0.15,0.1,0.009999999999999995,1,0.6201705389994459
85,647,Constant,0.1,0.1,0.1,0.012589254117941666,1,0.47981164700104273
85,648,FarLowNarrow,0.1,0.15,0.2,0.009999999999999995,1,0.5262936799990712
85,649,FarHighNarrow_null,0.2,0.15,0.1,0.005011872336272719,1,0.40127208400008385
85,650,Constant,0.1,0.1,0.1,0.009999999999999995,1,0.5755433550002635
85,651,FarLowNarrow,0.1,0.15,0.2,0.00794328234724281,0,0.4295488400002796
85,652,FarHighNarrow,0.2,0.15,0.1,0.00794328234724281,1,0.5848037540017685
85,653,ThreeLinesControl_null,0.0,0.0,0.1,0.01995262314968879,1,0.4950247010001476
85,654,FarLowWide,0.03,0.25,0.5,0.01995262314968879,1,0.45307746099933865
85,655,FarHighNarrow,0.2,0.15,0.1,0.0063095734448019285,0,0.41821105999952124
85,656,Constant,0.1,0.1,0.1,0.00794328234724281,0,0.5041665540011309
85,657,FarLowNarrow_null,0.1,0.15,0.2,0.03981071705534971,1,0.5973919020016183
85,658,FarLowWide,0.03,0.25,0.5,0.015848931924611127,1,0.49930687500091153
85,659,FarLowNarrow,0.1,0.15,0.2,0.009999999999999995,0,0.6178227700002026
85,660,FarLowNarrow,0.1,0.15,0.2,0.012589254117941666,1,0.6091518729990639
85,661,FarHighWide,0.5,0.25,0.03,0.00794328234724281,0,0.5913904389999516
85,662,FarHighWide,0.5,0.25,0.03,0.009999999999999995,0,0.6308913930006383
85,663,ThreeLinesControl,0.0,0.0,0.1,0.015848931924611127,1,0.5056889170009526
85,664,FarLowNarrow,0.1,0.15,0.2,0.009999999999999995,0,1.0797223749996192
85,665,FarLowNarrow,0.1,0.15,0.2,0.012589254117941666,0,0.5466277220002667
85,666,FarLowNarrow_null,0.1,0.15,0.2,0.031622776601683784,1,0.5610032539989334
85,667,FarLowNarrow,0.1,0.15,0.2,0.015848931924611127,1,0.5509682499996416
85,668,FarHighNarrow,0.2,0.15,0.1,0.00794328234724281,1,0.5783011690000421
85,669,FarHighWide,0.5,0.25,0.03,0.012589254117941666,1,0.608269319000101
85,670,FarLowWide,0.03,0.25,0.5,0.012589254117941666,0,0.4225456749991281
85,671,FarHighNarrow,0.2,0.15,0.1,0.0063095734448019285,0,0.34714130999964254
85,672,FarLowNarrow,0.1,0.15,0.2,0.012589254117941666,0,0.3445939510002063
85,673,FarHighWide,0.5,0.25,0.03,0.009999999999999995,0,0.4226509600011923
85,674,FarLowWide,0.03,0.25,0.5,0.015848931924611127,0,0.4129216940000333
85,675,Constant_null,0.1,0.1,0.1,0.015848931924611127,1,0.4193082170004345
85,676,FarHighWide,0.5,0.25,0.03,0.012589254117941666,1,0.768739622000794
85,677,Constant,0.1,0.1,0.1,0.009999999999999995,1,0.5666320660002384
85,678,Constant,0.1,0.1,0.1,0.00794328234724281,0,0.4701444639995316
85,679,FarLowNarrow,0.1,0.15,0.2,0.015848931924611127,1,0.45788742900003854
85,680,FarLowWide,0.03,0.25,0.5,0.01995262314968879,1,0.655075118998866
85,681,FarLowNarrow,0.1,0.15,0.2,0.012589254117941666,1,0.5091252709989931
85,682,FarHighNarrow,0.2,0.15,0.1,0.00794328234724281,1,0.4640873770003964
85,683,ThreeLinesControl,0.0,0.0,0.1,0.012589254117941666,1,0.6059944820008241
85,684,FarLowWide,0.03,0.25,0.5,0.015848931924611127,1,0.4574404129998584
85,685,FarHighNarrow,0.2,0.15,0.1,0.0063095734448019285,0,0.5757868499986216
85,686,FarHighNarrow,0.2,0.15,0.1,0.00794328234724281,0,0.46968609699979424
85,687,FarHighNarrow,0.2,0.15,0.1,0.009999999999999995,0,0.4350215770009527
85,688,FarHighWide,0.5,0.25,0.03,0.009999999999999995,1,0.5528612220005016
85,689,FarHighNarrow,0.2,0.15,0.1,0.012589254117941666,1,0.5273957219997101
85,690,ThreeLinesControl,0.0,0.0,0.1,0.009999999999999995,1,0.49334651900062454
85,691,ThreeLinesControl,0.0,0.0,0.1,0.00794328234724281,1,0.45981114099959086
85,692,FarHighWide,0.5,0.25,0.03,0.00794328234724281,1,0.480724877999819
85,693,FarHighWide_null,0.5,0.25,0.03,0.01995262314968879,0,0.552147057998809
85,694,Constant,0.1,0.1,0.1,0.009999999999999995,1,0.5102675150010327
85,695,FarLowNarrow,0.1,0.15,0.2,0.009999999999999995,1,0.5780893510000169
85,696,FarLowNarrow,0.1,0.15,0.2,0.00794328234724281,1,0.38414688099874184
85,697,FarHighNarrow,0.2,0.15,0.1,0.009999999999999995,1,0.414055871000528
85,698,FarHighNarrow,0.2,0.15,0.1,0.00794328234724281,1,0.8496889230009401
85,699,FarLowNarrow,0.1,0.15,0.2,0.0063095734448019285,1,0.6398696069991274
85,700,FarHighNarrow,0.2,0.15,0.1,0.0063095734448019285,0,0.5820838109993929
85,701,FarLowWide,0.03,0.25,0.5,0.012589254117941666,0,0.5451743240009819
85,702,FarLowNarrow,0.1,0.15,0.2,0.005011872336272719,0,0.5352412840002216
85,703,FarHighWide,0.5,0.25,0.03,0.0063095734448019285,0,0.5563193130001309
85,704,ThreeLinesControl_null,0.0,0.0,0.1,0.015848931924611127,1,0.4185492449996673
85,705,FarLowWide,0.03,0.25,0.5,0.015848931924611127,0,0.38447337499928835
85,706,ThreeLinesControl,0.0,0.0,0.1,0.0063095734448019285,0,0.454734377000932
85,707,ThreeLinesControl,0.0,0.0,0.1,0.00794328234724281,0,0.40385784399950353
85,708,FarHighWide,0.5,0.25,0.03,0.00794328234724281,0,0.8269611559990153
85,709,FarLowNarrow,0.1,0.15,0.2,0.0063095734448019285,0,0.5616867270000512
85,710,FarHighNarrow,0.2,0.15,0.1,0.00794328234724281,0,0.6074714309997944
85,711,FarLowNarrow,0.1,0.15,0.2,0.00794328234724281,0,0.35106895599892596
85,712,FarLowNarrow,0.1,0.15,0.2,0.009999999999999995,0,0.33073493799929565
85,713,FarLowNarrow,0.1,0.15,0.2,0.012589254117941666,0,0.3287332990003051
85,714,FarHighWide_null,0.5,0.25,0.03,0.025118864315095794,1,0.5390242319990648
85,715,FarLowWide,0.03,0.25,0.5,0.01995262314968879,0,0.42514439299884543
85,716,FarLowNarrow,0.1,0.15,0.2,0.015848931924611127,1,0.5591528149998339
85,717,FarLowNarrow,0.1,0.15,0.2,0.012589254117941666,0,1.0265594830016198
85,718,Constant_null,0.1,0.1,0.1,0.012589254117941666,1,0.552677837000374
85,719,FarLowNarrow,0.1,0.15,0.2,0.015848931924611127,1,0.518673532998946
85,720,FarHighWide,0.5,0.25,0.03,0.009999999999999995,0,0.5213930030004121
85,721,Constant,0.1,0.1,0.1,0.00794328234724281,0,0.3756364550008584
85,722,FarHighWide_null,0.5,0.25,0.03,0.01995262314968879,1,0.4936938379996718
85,723,FarHighNarrow_null,0.2,0.15,0.1,0.00398107170553497,1,0.32389900000089256
85,724,ThreeLinesControl,0.0,0.0,0.1,0.009999999999999995,0,0.3540742520017375
85,725,FarHighNarrow,0.2,0.15,0.1,0.009999999999999995,1,0.7131521989995235
85,726,FarLowWide,0.03,0.25,0.5,0.025118864315095794,1,0.4392920820009749
85,727,Constant,0.1,0.1,0.1,0.009999999999999995,1,0.3874157939990255
85,728,FarLowNarrow,0.1,0.15,0.2,0.012589254117941666,1,0.5135205360002146
85,729,Constant,0.1,0.1,0.1,0.00794328234724281,0,0.43095096000070043
85,730,Constant,0.1,0.1,0.1,0.009999999999999995,0,0.4019425770002272
85,731,FarHighNarrow,0.2,0.15,0.1,0.00794328234724281,1,0.5680439240004489
85,732,Constant,0.1,0.1,0.1,0.012589254117941666,0,0.5242508490009641
85,733,ThreeLinesControl,0.0,0.0,0.1,0.012589254117941666,0,0.35318465899945295
85,734,ThreeLinesControl_null,0.0,0.0,0.1,0.012589254117941666,1,0.38248985100108257
85,735,FarHighNarrow,0.2,0.15,0.1,0.0063095734448019285,0,0.38856914400093956
85,736,FarHighNarrow,0.2,0.15,0.1,0.00794328234724281,0,0.8667756840004586
85,737,Constant,0.1,0.1,0.1,0.015848931924611127,1,0.5450662919993192
85,738,ThreeLinesControl,0.0,0.0,0.1,0.015848931924611127,0,0.5670629190008185
85,739,FarLowNarrow,0.1,0.15,0.2,0.009999999999999995,1,0.5484216620006919
85,740,Constant,0.1,0.1,0.1,0.012589254117941666,1,0.5385395810008049
85,741,ThreeLinesControl,0.0,0.0,0.1,0.01995262314968879,0,0.5926778760003799
85,742,ThreeLinesControl,0.0,0.0,0.1,0.025118864315095794,1,0.520183051999993
85,743,FarHighWide,0.5,0.25,0.03,0.012589254117941666,1,0.49926827600029355
85,744,FarLowWide,0.03,0.25,0.5,0.01995262314968879,1,0.456800979000036
85,745,ThreeLinesControl,0.0,0.0,0.1,0.01995262314968879,1,0.4311401909999404
85,746,FarLowWide,0.03,0.25,0.5,0.015848931924611127,0,0.48212636099924566
85,747,ThreeLinesControl,0.0,0.0,0.1,0.015848931924611127,1,0.4404774960003124
85,748,Constant,0.1,0.1,0.1,0.009999999999999995,1,0.4994254920002277
85,749,ThreeLinesControl_null,0.0,0.0,0.1,0.009999999999999995,1,0.6099300519999815
85,750,FarHighNarrow,0.2,0.15,0.1,0.009999999999999995,1,0.5599210130003485
85,751,FarHighNarrow,0.2,0.15,0.1,0.00794328234724281,1,0.5420321569999942
85,752,FarLowNarrow,0.1,0.15,0.2,0.00794328234724281,0,0.46819168100046227
85,753,ThreeLinesControl,0.0,0.0,0.1,0.012589254117941666,0,0.5782383290006692
85,754,FarLowNarrow,0.1,0.15,0.2,0.009999999999999995,0,0.44765865199951804
85,755,FarHighWide,0.5,0.25,0.03,0.009999999999999995,1,0.44504284100003133
85,756,ThreeLinesControl,0.0,0.0,0.1,0.015848931924611127,1,0.6756313879996014
85,757,FarHighWide,0.5,0.25,0.03,0.00794328234724281,1,0.4979046009993908
85,758,FarLowNarrow,0.1,0.15,0.2,0.012589254117941666,0,0.5042496299993218
85,759,FarLowWide,0.03,0.25,0.5,0.01995262314968879,0,0.5001320020001003
85,760,FarHighWide,0.5,0.25,0.03,0.0063095734448019285,1,0.6184490369996638
85,761,FarLowNarrow,0.1,0.15,0.2,0.015848931924611127,1,0.48848423399977037
85,762,Constant,0.1,0.1,0.1,0.00794328234724281,1,0.5796501749991876
85,763,ThreeLinesControl_null,0.0,0.0,0.1,0.00794328234724281,1,0.5047440189991903
85,764,FarHighNarrow,0.2,0.15,0.1,0.0063095734448019285,0,0.6469333649984037
85,765,FarHighNarrow,0.2,0.15,0.1,0.00794328234724281,1,0.6030568540008971
85,766,FarLowWide,0.03,0.25,0.5,0.025118864315095794,1,0.5691980539995711
85,767,FarHighNarrow,0.2,0.15,0.1,0.0063095734448019285,1,0.5836058819986647
85,768,FarHighWide,0.5,0.25,0.03,0.005011872336272719,1,0.5255713360002119
85,769,Constant,0.1,0.1,0.1,0.0063095734448019285,0,0.4986420739987807
85,770,Constant,0.1,0.1,0.1,0.00794328234724281,1,0.4576010939999833
85,771,ThreeLinesControl,0.0,0.0,0.1,0.012589254117941666,0,0.4230095769999025
85,772,FarLowWide,0.03,0.25,0.5,0.01995262314968879,0,0.3811459120006475
85,773,Constant,0.1,0.1,0.1,0.0063095734448019285,0,0.6916502380008751
85,774,FarHighNarrow,0.2,0.15,0.1,0.005011872336272719,0,0.4340307460006443
85,775,FarLowWide,0.03,0.25,0.5,0.025118864315095794,1,0.5130644769997161
85,776,FarLowNarrow,0.1,0.15,0.2,0.012589254117941666,1,0.4761238190003496
85,777,ThreeLinesControl,0.0,0.0,0.1,0.015848931924611127,1,0.537891899000897
85,778,FarHighNarrow,0.2,0.15,0.1,0.0063095734448019285,0,0.445216623998931
85,779,FarHighNarrow,0.2,0.15,0.1,0.00794328234724281,0,0.8272630270002992
85,780,Constant,0.1,0.1,0.1,0.00794328234724281,1,0.6252649769994605
85,781,ThreeLinesControl,0.0,0.0,0.1,0.012589254117941666,0,0.6375293670007522
85,782,FarLowWide,0.03,0.25,0.5,0.01995262314968879,1,0.6515338179997343
85,783,FarHighNarrow,0.2,0.15,0.1,0.009999999999999995,0,0.6084352070010937
85,784,FarHighNarrow,0.2,0.15,0.1,0.012589254117941666,0,0.48677520900128
85,785,FarHighNarrow_null,0.2,0.15,0.1,0.0031622776601683772,1,0.46893231100148114
85,786,ThreeLinesControl,0.0,0.0,0.1,0.015848931924611127,1,0.6193064770013734
85,787,Constant,0.1,0.1,0.1,0.0063095734448019285,0,0.44938135699885606
85,788,FarLowNarrow_null,0.1,0.15,0.2,0.02511886431509579,1,0.43959336100124347
85,789,FarHighNarrow,0.2,0.15,0.1,0.015848931924611127,1,0.5085813209989283
85,790,FarHighNarrow,0.2,0.15,0.1,0.012589254117941666,0,0.44297166900105367
85,791,FarLowWide,0.03,0.25,0.5,0.015848931924611127,0,0.7290183679997426
85,792,FarHighWide,0.5,0.25,0.03,0.00398107170553497,0,0.6351392629985639
85,793,FarLowNarrow,0.1,0.15,0.2,0.009999999999999995,1,0.4729172039988043
85,794,FarHighWide,0.5,0.25,0.03,0.00501187233627272,0,0.8311720940000669
85,795,ThreeLinesControl,0.0,0.0,0.1,0.012589254117941666,0,0.6746045100007905
85,796,ThreeLinesControl,0.0,0.0,0.1,0.015848931924611127,1,0.5207661560016277
85,797,FarHighWide,0.5,0.25,0.03,0.006309573444801929,0,0.7166530619997502
85,798,FarLowWide,0.03,0.25,0.5,0.01995262314968879,1,0.4428620749986294
85,799,FarHighWide,0.5,0.25,0.03,0.007943282347242812,1,0.6492757719988731
85,800,FarHighNarrow,0.2,0.15,0.1,0.015848931924611127,1,0.3992902240006515
85,801,FarHighWide,0.5,0.25,0.03,0.006309573444801929,0,0.6055273170004511
85,802,FarLowWide,0.03,0.25,0.5,0.015848931924611127,1,0.5236835859996063
85,803,FarHighWide,0.5,0.25,0.03,0.007943282347242812,1,0.6885615650007821
85,804,ThreeLinesControl,0.0,0.0,0.1,0.012589254117941666,1,0.5194120530013606
85,805,Constant_null,0.1,0.1,0.1,0.009999999999999995,1,0.4124960219996865
85,806,FarHighWide,0.5,0.25,0.03,0.006309573444801929,0,0.5780404590004764
85,807,FarHighWide,0.5,0.25,0.03,0.007943282347242812,0,0.5699387019994901
85,808,FarHighWide,0.5,0.25,0.03,0.009999999999999997,0,0.4442521319997468
85,809,FarHighWide,0.5,0.25,0.03,0.012589254117941668,0,0.4574532859987812
85,810,Constant,0.1,0.1,0.1,0.00794328234724281,1,0.5514653280006314
85,811,Constant,0.1,0.1,0.1,0.0063095734448019285,0,0.4350097830010782
85,812,FarLowNarrow,0.1,0.15,0.2,0.00794328234724281,0,0.353067039999587
85,813,FarHighNarrow,0.2,0.15,0.1,0.012589254117941666,0,0.3261946929997066
85,814,ThreeLinesControl,0.0,0.0,0.1,0.009999999999999995,0,0.371316888000365
85,815,ThreeLinesControl,0.0,0.0,0.1,0.012589254117941666,1,0.4814827019999939
85,816,FarLowWide,0.03,0.25,0.5,0.012589254117941666,0,0.48765854600060266
85,817,FarLowNarrow,0.1,0.15,0.2,0.009999999999999995,1,0.5816892349994305
85,818,ThreeLinesControl,0.0,0.0,0.1,0.009999999999999995,0,0.3878547640015313
85,819,FarLowWide_null,0.03,0.25,0.5,0.005011872336272719,1,0.32210565300010785
85,820,FarLowWide,0.03,0.25,0.5,0.015848931924611127,1,0.5369351299996197
85,821,FarLowWide_null,0.03,0.25,0.5,0.00398107170553497,1,0.3437359950003156
85,822,Constant,0.1,0.1,0.1,0.00794328234724281,0,0.3965879389998008
85,823,Constant,0.1,0.1,0.1,0.009999999999999995,1,0.6023691190002864
85,824,ThreeLinesControl,0.0,0.0,0.1,0.012589254117941666,0,0.5979591539999092
85,825,FarHighNarrow,0.2,0.15,0.1,0.015848931924611127,1,0.5080823799999052
85,826,ThreeLinesControl,0.0,0.0,0.1,0.015848931924611127,1,0.4501497380006185
85,827,FarLowNarrow,0.1,0.15,0.2,0.00794328234724281,0,0.5015703179997217
85,828,FarHighWide,0.5,0.25,0.03,0.01584893192461113,1,0.5785186720004276
85,829,ThreeLinesControl,0.0,0.0,0.1,0.012589254117941666,0,0.4734860230000777
85,830,FarLowNarrow,0.1,0.15,0.2,0.009999999999999995,0,0.5659052430000884
85,831,Constant,0.1,0.1,0.1,0.00794328234724281,0,0.4199568910007656
85,832,FarHighWide,0.5,0.25,0.03,0.012589254117941668,1,0.5699793590010813
85,833,ThreeLinesControl,0.0,0.0,0.1,0.015848931924611127,1,0.5122131469997839
85,834,FarHighWide,0.5,0.25,0.03,0.009999999999999997,1,0.534318877998885
85,835,FarHighWide,0.5,0.25,0.03,0.007943282347242812,1,0.7958648650001123
85,836,FarHighWide,0.5,0.25,0.03,0.006309573444801929,0,0.4746097090010153
85,837,FarHighWide_null,0.5,0.25,0.03,0.015848931924611127,1,0.5223918209994736
85,838,FarHighNarrow_null,0.2,0.15,0.1,0.002511886431509578,1,0.4301377390002017
85,839,FarHighWide,0.5,0.25,0.03,0.007943282347242812,1,0.7559538079985941
85,840,FarLowWide,0.03,0.25,0.5,0.012589254117941666,0,0.405673012999614
85,841,FarHighWide,0.5,0.25,0.03,0.006309573444801929,0,0.5324974750001275
85,842,ThreeLinesControl,0.0,0.0,0.1,0.012589254117941666,0,0.3623685300008219
85,843,FarHighWide,0.5,0.25,0.03,0.007943282347242812,0,0.44643679299952055
85,844,FarHighWide,0.5,0.25,0.03,0.009999999999999997,1,0.4285051549995842
85,845,Constant,0.1,0.1,0.1,0.009999999999999995,1,0.4105756110002403
85,846,Constant_null,0.1,0.1,0.1,0.00794328234724281,1,0.43772805399930803
85,847,FarHighWide,0.5,0.25,0.03,0.007943282347242812,1,0.5071597890000703
85,848,FarHighWide,0.5,0.25,0.03,0.006309573444801929,0,0.4941934920007043
85,849,Constant_null,0.1,0.1,0.1,0.0063095734448019285,1,0.7242311419995531
85,850,ThreeLinesControl,0.0,0.0,0.1,0.015848931924611127,1,0.7290675839994947
85,851,Constant,0.1,0.1,0.1,0.00794328234724281,1,0.5114209740004299
85,852,FarLowWide,0.03,0.25,0.5,0.015848931924611127,0,0.4777857449989824
85,853,FarHighWide,0.5,0.25,0.03,0.007943282347242812,1,0.47473018299933756
85,854,FarHighNarrow,0.2,0.15,0.1,0.012589254117941666,1,0.5046707499986951
85,855,FarLowNarrow,0.1,0.15,0.2,0.012589254117941666,1,0.6233962920014164
85,856,FarLowNarrow,0.1,0.15,0.2,0.009999999999999995,1,0.4374616719996993
85,857,FarHighNarrow,0.2,0.15,0.1,0.009999999999999995,0,0.4448574069992901
85,858,FarHighNarrow,0.2,0.15,0.1,0.012589254117941666,0,0.49885619599990605
85,859,Constant_null,0.1,0.1,0.1,0.005011872336272719,1,0.334554504001062
85,860,FarLowNarrow,0.1,0.15,0.2,0.00794328234724281,0,0.31880845299929206
85,861,FarLowWide,0.03,0.25,0.5,0.01995262314968879,0,0.6907965919999697
85,862,FarLowNarrow,0.1,0.15,0.2,0.009999999999999995,0,0.4861993060003442
85,863,ThreeLinesControl,0.0,0.0,0.1,0.012589254117941666,0,0.4843129229993792
85,864,FarLowWide,0.03,0.25,0.5,0.025118864315095794,1,0.47448196900040784
85,865,FarHighWide,0.5,0.25,0.03,0.006309573444801929,0,1.0535111049994157
85,866,ThreeLinesControl_null,0.0,0.0,0.1,0.0063095734448019285,1,0.6438939800009393
85,867,FarLowWide,0.03,0.25,0.5,0.01995262314968879,1,0.608809769999425
85,868,FarLowWide,0.03,0.25,0.5,0.015848931924611127,1,0.5508377300011489
85,869,FarLowWide,0.03,0.25,0.5,0.012589254117941666,0,0.45227892600087216
85,870,FarHighWide,0.5,0.25,0.03,0.007943282347242812,0,0.8184332309992897
85,871,Constant,0.1,0.1,0.1,0.0063095734448019285,0,0.4964928429999418
85,872,FarHighNarrow,0.2,0.15,0.1,0.015848931924611127,1,0.6466240980007569
85,873,FarLowWide,0.03,0.25,0.5,0.015848931924611127,1,0.5730060169989883
85,874,FarLowNarrow,0.1,0.15,0.2,0.012589254117941666,0,0.48380867800005944
85,875,FarHighNarrow,0.2,0.15,0.1,0.012589254117941666,1,0.5120881960010593
85,876,ThreeLinesControl,0.0,0.0,0.1,0.015848931924611127,1,0.7332578279983863
85,877,FarHighNarrow,0.2,0.15,0.1,0.009999999999999995,1,0.8273265410007298
85,878,FarLowNarrow,0.1,0.15,0.2,0.015848931924611127,1,0.5745183199996973
85,879,ThreeLinesControl,0.0,0.0,0.1,0.012589254117941666,1,0.8126860390002548
85,880,FarHighWide,0.5,0.25,0.03,0.009999999999999997,1,0.6267950300007215
85,881,ThreeLinesControl,0.0,0.0,0.1,0.009999999999999995,0,0.4615320619996055
85,882,FarLowWide_null,0.03,0.25,0.5,0.0031622776601683772,1,0.5081348290004826
85,883,FarHighNarrow,0.2,0.15,0.1,0.00794328234724281,0,0.3690934410005866
85,884,FarHighWide,0.5,0.25,0.03,0.007943282347242812,1,0.6234100849997048
85,885,ThreeLinesControl,0.0,0.0,0.1,0.012589254117941666,1,0.40565752099973906
85,886,FarHighNarrow,0.2,0.15,0.1,0.009999999999999995,0,0.4674914040006115
85,887,Constant,0.1,0.1,0.1,0.00794328234724281,0,0.6898933600004966
85,888,FarHighWide,0.5,0.25,0.03,0.006309573444801929,0,0.6639833490007732
85,889,FarHighNarrow,0.2,0.15,0.1,0.012589254117941666,1,0.5026052960001834
85,890,FarLowWide,0.03,0.25,0.5,0.012589254117941666,0,0.4847291599999153
85,891,FarLowWide,0.03,0.25,0.5,0.015848931924611127,0,0.3875351659989974
85,892,ThreeLinesControl,0.0,0.0,0.1,0.009999999999999995,0,0.4958506140010286
85,893,FarLowNarrow,0.1,0.15,0.2,0.012589254117941666,0,0.3257371489999059
85,894,ThreeLinesControl,0.0,0.0,0.1,0.012589254117941666,0,0.28896395199990366
85,895,FarLowNarrow,0.1,0.15,0.2,0.015848931924611127,1,0.4549519530010002
85,896,FarHighNarrow,0.2,0.15,0.1,0.009999999999999995,0,0.844800988001225
85,897,FarHighWide,0.5,0.25,0.03,0.007943282347242812,1,0.5672134899996308
85,898,ThreeLinesControl,0.0,0.0,0.1,0.015848931924611127,1,0.41347622600005707
85,899,Constant,0.1,0.1,0.1,0.009999999999999995,1,0.45173422299922095
85,900,Constant,0.1,0.1,0.1,0.00794328234724281,0,0.4095383669991861
85,901,FarLowWide,0.03,0.25,0.5,0.01995262314968879,0,0.3599797770002624
85,902,FarHighNarrow,0.2,0.15,0.1,0.012589254117941666,0,0.5500271729997621
85,903,ThreeLinesControl_null,0.0,0.0,0.1,0.005011872336272719,1,0.3803153819990257
85,904,FarHighNarrow,0.2,0.15,0.1,0.015848931924611127,1,0.4413164340003277
85,905,FarHighWide,0.5,0.25,0.03,0.006309573444801929,0,0.6397741839991795
85,906,Constant_null,0.1,0.1,0.1,0.00398107170553497,1,0.43801812200035783
85,907,FarLowNarrow,0.1,0.15,0.2,0.012589254117941666,0,0.41211383399968327
85,908,FarLowNarrow,0.1,0.15,0.2,0.015848931924611127,1,0.3678946039999573
85,909,FarLowNarrow,0.1,0.15,0.2,0.012589254117941666,1,0.5903430939997634
85,910,ThreeLinesControl,0.0,0.0,0.1,0.012589254117941666,1,0.48417811900071683
85,911,FarLowWide,0.03,0.25,0.5,0.025118864315095794,1,0.5434944369990262
85,912,FarLowNarrow,0.1,0.15,0.2,0.009999999999999995,0,0.6535249309999926
85,913,ThreeLinesControl,0.0,0.0,0.1,0.009999999999999995,0,0.4006814940003096
85,914,ThreeLinesControl,0.0,0.0,0.1,0.012589254117941666,0,1.062881126999855
85,915,FarHighWide,0.5,0.25,0.03,0.007943282347242812,1,0.6204328650001116
85,916,ThreeLinesControl,0.0,0.0,0.1,0.015848931924611127,1,0.6901152230002481
85,917,FarLowNarrow,0.1,0.15,0.2,0.012589254117941666,0,0.8002229470002931
85,918,FarHighWide,0.5,0.25,0.03,0.006309573444801929,0,0.5583960950007167
85,919,FarHighWide,0.5,0.25,0.03,0.007943282347242812,0,0.4526685609998822
85,920,FarHighWide,0.5,0.25,0.03,0.009999999999999997,0,0.4029476989999239
85,921,FarHighNarrow_null,0.2,0.15,0.1,0.001995262314968878,1,0.5052417699989746
85,922,Constant,0.1,0.1,0.1,0.009999999999999995,1,0.5190536579993932
85,923,ThreeLinesControl_null,0.0,0.0,0.1,0.00398107170553497,1,0.41450283999984094
85,924,ThreeLinesControl,0.0,0.0,0.1,0.012589254117941666,0,0.3612546429994836
85,925,FarLowNarrow,0.1,0.15,0.2,0.015848931924611127,1,0.5115394580006978
85,926,FarHighNarrow,0.2,0.15,0.1,0.012589254117941666,0,0.45341464199918846
85,927,FarHighWide,0.5,0.25,0.03,0.012589254117941668,0,0.45683012600056827
85,928,ThreeLinesControl,0.0,0.0,0.1,0.015848931924611127,1,0.5030538329992851
85,929,FarLowNarrow,0.1,0.15,0.2,0.012589254117941666,0,0.5698899799990613
85,930,FarHighNarrow,0.2,0.15,0.1,0.015848931924611127,1,0.44811109399961424
85,931,ThreeLinesControl,0.0,0.0,0.1,0.012589254117941666,0,0.48641947400028585
85,932,FarLowNarrow,0.1,0.15,0.2,0.015848931924611127,0,0.34049085500009824
85,933,ThreeLinesControl,0.0,0.0,0.1,0.015848931924611127,1,0.49082987799920375
85,934,ThreeLinesControl,0.0,0.0,0.1,0.012589254117941666,0,0.32094305800092116
85,935,FarHighWide,0.5,0.25,0.03,0.01584893192461113,1,0.5270364540010632
85,936,FarLowWide,0.03,0.25,0.5,0.01995262314968879,0,0.4115382670006511
85,937,FarHighWide,0.5,0.25,0.03,0.012589254117941668,1,0.578278719998707
85,938,FarHighNarrow,0.2,0.15,0.1,0.012589254117941666,1,0.37661880899941025
85,939,FarLowWide,0.03,0.25,0.5,0.025118864315095794,1,0.37617926499842724
85,940,ThreeLinesControl,0.0,0.0,0.1,0.015848931924611127,1,0.5147312469998724
85,941,FarLowNarrow,0.1,0.15,0.2,0.01995262314968879,1,0.504997732999982
85,942,FarLowWide,0.03,0.25,0.5,0.01995262314968879,1,0.3350018370001635
85,943,FarHighNarrow,0.2,0.15,0.1,0.009999999999999995,1,0.49007282499951543
85,944,Constant,0.1,0.1,0.1,0.00794328234724281,1,0.5923894990010012
85,945,Constant,0.1,0.1,0.1,0.0063095734448019285,0,0.5744880880010896
85,946,Constant,0.1,0.1,0.1,0.00794328234724281,0,0.40141315999971994
85,947,FarHighWide,0.5,0.25,0.03,0.009999999999999997,0,0.3995941849989322
85,948,Constant,0.1,0.1,0.1,0.009999999999999995,1,0.45392153400098323
85,949,Constant,0.1,0.1,0.1,0.00794328234724281,1,0.37211990200012224
85,950,ThreeLinesControl,0.0,0.0,0.1,0.012589254117941666,0,0.5302985480011557
85,951,ThreeLinesControl,0.0,0.0,0.1,0.015848931924611127,0,0.39137761399979354
85,952,ThreeLinesControl,0.0,0.0,0.1,0.01995262314968879,1,0.3972978540004988
85,953,ThreeLinesControl,0.0,0.0,0.1,0.015848931924611127,1,0.6194495129984716
85,954,FarHighWide,0.5,0.25,0.03,0.012589254117941668,0,0.6178036210003484
85,955,FarLowNarrow,0.1,0.15,0.2,0.015848931924611127,1,0.7601814680001553
85,956,Constant,0.1,0.1,0.1,0.0063095734448019285,0,0.49597334600002796
85,957,FarHighWide,0.5,0.25,0.03,0.01584893192461113,1,0.6025831739989371
85,958,FarLowWide,0.03,0.25,0.5,0.015848931924611127,1,0.4232753630003572
85,959,FarHighNarrow,0.2,0.15,0.1,0.00794328234724281,0,0.5875977450014034
85,960,FarHighNarrow,0.2,0.15,0.1,0.009999999999999995,0,0.5386371109998436
85,961,FarLowNarrow,0.1,0.15,0.2,0.012589254117941666,0,0.30446795399984694
85,962,FarHighWide,0.5,0.25,0.03,0.012589254117941668,0,0.44486430100005236
85,963,ThreeLinesControl,0.0,0.0,0.1,0.012589254117941666,0,0.3440207309995458
85,964,FarHighWide,0.5,0.25,0.03,0.01584893192461113,1,0.39812872299989976
85,965,Constant,0.1,0.1,0.1,0.00794328234724281,0,0.4362342929998704
85,966,ThreeLinesControl,0.0,0.0,0.1,0.015848931924611127,1,0.528058260000762
85,967,FarHighWide_null,0.5,0.25,0.03,0.012589254117941666,1,0.5905145460001222
85,968,ThreeLinesControl,0.0,0.0,0.1,0.012589254117941666,0,0.34782555300080276
85,969,FarHighWide,0.5,0.25,0.03,0.012589254117941668,0,0.5943877850004355
85,970,ThreeLinesControl_null,0.0,0.0,0.1,0.0031622776601683772,1,0.32107810500019696
85,971,FarHighNarrow_null,0.2,0.15,0.1,0.0015848931924611121,1,0.5362238890011213
85,972,FarLowWide,0.03,0.25,0.5,0.012589254117941666,0,0.382952189000207
85,973,FarLowWide,0.03,0.25,0.5,0.015848931924611127,0,0.28346437199979846
85,974,FarHighNarrow,0.2,0.15,0.1,0.012589254117941666,1,0.4163412759990024
85,975,FarHighWide,0.5,0.25,0.03,0.01584893192461113,1,0.43968894600038766
85,976,FarHighWide,0.5,0.25,0.03,0.012589254117941668,1,0.40592852199915797
85,977,FarHighWide_null,0.5,0.25,0.03,0.009999999999999995,1,0.48874821299978066
85,978,FarLowNarrow_null,0.1,0.15,0.2,0.01995262314968879,1,0.3192648709991772
85,979,FarLowWide,0.03,0.25,0.5,0.01995262314968879,1,0.4583101609987352
85,980,FarLowWide_null,0.03,0.25,0.5,0.002511886431509578,1,0.3833598470009747
85,981,FarLowWide,0.03,0.25,0.5,0.015848931924611127,0,0.3253949209993152
85,982,FarLowWide,0.03,0.25,0.5,0.01995262314968879,0,0.38673837699934666
85,983,FarLowNarrow,0.1,0.15,0.2,0.015848931924611127,1,0.5046864989999449
85,984,Constant_null,0.1,0.1,0.1,0.0031622776601683772,1,0.502996395000082
85,985,Constant,0.1,0.1,0.1,0.009999999999999995,1,0.5722254720003548
85,986,FarHighWide_null,0.5,0.25,0.03,0.00794328234724281,1,0.554137377999723
85,987,ThreeLinesControl,0.0,0.0,0.1,0.015848931924611127,0,0.6980181179987994
85,988,FarHighNarrow,0.2,0.15,0.1,0.009999999999999995,0,0.8316895369989652
85,989,FarHighNarrow,0.2,0.15,0.1,0.012589254117941666,0,0.6046241679996456
85,990,ThreeLinesControl,0.0,0.0,0.1,0.01995262314968879,0,0.5060423700015235
85,991,FarLowNarrow,0.1,0.15,0.2,0.012589254117941666,0,0.4239780360003351
85,992,FarLowNarrow,0.1,0.15,0.2,0.015848931924611127,1,0.48623006399975566
85,993,FarHighNarrow,0.2,0.15,0.1,0.015848931924611127,1,0.5213433599983546
85,994,FarHighWide_null,0.5,0.25,0.03,0.0063095734448019285,1,0.5276038210013212
85,995,Constant,0.1,0.1,0.1,0.00794328234724281,0,0.4374624079991918
85,996,ThreeLinesControl,0.0,0.0,0.1,0.025118864315095794,1,0.4800494230003096
85,997,FarLowNarrow,0.1,0.15,0.2,0.012589254117941666,1,0.6618611060002877
85,998,FarLowNarrow_null,0.1,0.15,0.2,0.015848931924611127,1,0.45117886399930285
85,999,FarHighNarrow,0.2,0.15,0.1,0.012589254117941666,0,0.4493320750007115
85,1000,FarHighNarrow,0.2,0.15,0.1,0.015848931924611127,0,0.5434631490006723
85,1001,FarHighWide,0.5,0.25,0.03,0.009999999999999997,0,0.7576060300016252
85,1002,FarHighWide,0.5,0.25,0.03,0.012589254117941668,0,0.6905423170010181
85,1003,FarLowWide,0.03,0.25,0.5,0.025118864315095794,1,0.5289832310008933
85,1004,FarLowNarrow,0.1,0.15,0.2,0.009999999999999995,0,0.4482455739998841
85,1005,FarLowNarrow,0.1,0.15,0.2,0.012589254117941666,0,0.5504237999994075
85,1006,FarLowNarrow,0.1,0.15,0.2,0.015848931924611127,1,0.4752603549986816
85,1007,FarLowNarrow,0.1,0.15,0.2,0.012589254117941666,0,0.45747169599962945
85,1008,Constant,0.1,0.1,0.1,0.009999999999999995,0,0.6786512259986921
85,1009,FarLowNarrow,0.1,0.15,0.2,0.015848931924611127,0,0.36191764600152965
85,1010,Constant_null,0.1,0.1,0.1,0.002511886431509578,1,0.3926963349986181
85,1011,FarHighWide,0.5,0.25,0.03,0.01584893192461113,1,0.39788138499898196
85,1012,FarHighNarrow,0.2,0.15,0.1,0.01995262314968879,1,0.38500865200148837
85,1013,FarLowWide,0.03,0.25,0.5,0.01995262314968879,1,0.5195631039987347
85,1014,Constant,0.1,0.1,0.1,0.012589254117941666,1,0.4284806270006811
85,1015,ThreeLinesControl,0.0,0.0,0.1,0.01995262314968879,0,0.6905442960014625
85,1016,FarLowNarrow,0.1,0.15,0.2,0.01995262314968879,1,0.4010190089993557
85,1017,FarLowWide,0.03,0.25,0.5,0.015848931924611127,0,0.486972003000119
85,1018,FarHighNarrow,0.2,0.15,0.1,0.015848931924611127,1,0.4038181110008736
85,1019,Constant,0.1,0.1,0.1,0.009999999999999995,1,0.47328017499967245
85,1020,FarHighNarrow,0.2,0.15,0.1,0.012589254117941666,1,0.447468050999305
85,1021,FarLowNarrow,0.1,0.15,0.2,0.015848931924611127,0,0.47079049199965084
85,1022,FarHighNarrow,0.2,0.15,0.1,0.009999999999999995,0,0.5410533790000045
85,1023,ThreeLinesControl,0.0,0.0,0.1,0.025118864315095794,1,0.37795897299838543
85,1024,ThreeLinesControl,0.0,0.0,0.1,0.01995262314968879,1,0.4318895779997547
85,1025,FarLowWide,0.03,0.25,0.5,0.01995262314968879,0,0.7542008350010292
85,1026,Constant,0.1,0.1,0.1,0.00794328234724281,1,0.537307795999368
85,1027,ThreeLinesControl,0.0,0.0,0.1,0.015848931924611127,0,0.3661428400009754
85,1028,Constant,0.1,0.1,0.1,0.0063095734448019285,0,0.5056179410003097
85,1029,Constant,0.1,0.1,0.1,0.00794328234724281,0,0.5746954569985974
85,1030,ThreeLinesControl,0.0,0.0,0.1,0.01995262314968879,1,0.5808093739997275
85,1031,FarLowNarrow,0.1,0.15,0.2,0.01995262314968879,0,0.5228681900007359
85,1032,FarLowWide,0.03,0.25,0.5,0.025118864315095794,1,0.4162261359997501
85,1033,FarLowWide,0.03,0.25,0.5,0.01995262314968879,1,0.35026503299923206
85,1034,FarHighNarrow,0.2,0.15,0.1,0.012589254117941666,0,0.6205383640008222
85,1035,FarLowWide,0.03,0.25,0.5,0.015848931924611127,0,0.41868364199945063
85,1036,FarLowWide,0.03,0.25,0.5,0.01995262314968879,1,0.49696853299974464
85,1037,FarLowWide,0.03,0.25,0.5,0.015848931924611127,1,0.4481983610003226
85,1038,FarHighWide,0.5,0.25,0.03,0.012589254117941668,0,0.5981398499989155
85,1039,FarHighNarrow,0.2,0.15,0.1,0.015848931924611127,1,0.5311480060008762
85,1040,ThreeLinesControl,0.0,0.0,0.1,0.015848931924611127,1,0.8242446259991993
85,1041,FarHighWide,0.5,0.25,0.03,0.01584893192461113,1,0.5054370070010918
85,1042,Constant,0.1,0.1,0.1,0.009999999999999995,0,0.4985508879999543
85,1043,FarLowWide,0.03,0.25,0.5,0.012589254117941666,1,0.4406857439989835
85,1044,ThreeLinesControl,0.0,0.0,0.1,0.012589254117941666,0,0.5000117239997053
85,1045,FarHighNarrow,0.2,0.15,0.1,0.012589254117941666,1,0.46616715399977693
85,1046,Constant,0.1,0.1,0.1,0.012589254117941666,0,0.6631213580003532
85,1047,FarLowNarrow,0.1,0.15,0.2,0.025118864315095794,1,0.5094447610008501
85,1048,FarLowNarrow,0.1,0.15,0.2,0.01995262314968879,0,0.4913631030012766
85,1049,FarHighNarrow,0.2,0.15,0.1,0.009999999999999995,0,0.5295937669998239
85,1050,FarHighWide,0.5,0.25,0.03,0.012589254117941668,0,0.5586410759988212
85,1051,FarHighNarrow,0.2,0.15,0.1,0.012589254117941666,0,0.3010730819987657
85,1052,FarLowWide,0.03,0.25,0.5,0.009999999999999995,0,0.37947132000044803
85,1053,FarLowWide,0.03,0.25,0.5,0.012589254117941666,0,0.2906695239998953
85,1054,FarHighNarrow,0.2,0.15,0.1,0.015848931924611127,1,0.4404300480000529
85,1055,FarHighNarrow,0.2,0.15,0.1,0.012589254117941666,0,0.4445959189997666
85,1056,ThreeLinesControl,0.0,0.0,0.1,0.015848931924611127,1,0.4986819829991873
85,1057,FarHighNarrow,0.2,0.15,0.1,0.015848931924611127,1,0.42394822999995085
85,1058,FarLowWide,0.03,0.25,0.5,0.015848931924611127,1,0.6280569110003853
85,1059,FarLowNarrow,0.1,0.15,0.2,0.025118864315095794,1,0.3932724429996597
85,1060,FarHighNarrow,0.2,0.15,0.1,0.012589254117941666,1,0.4044195309998031
85,1061,Constant,0.1,0.1,0.1,0.015848931924611127,1,0.3623275689988077
85,1062,FarLowNarrow,0.1,0.15,0.2,0.01995262314968879,0,0.3605381689994829
85,1063,FarLowNarrow,0.1,0.15,0.2,0.025118864315095794,1,0.3909444090004399
85,1064,FarLowNarrow,0.1,0.15,0.2,0.01995262314968879,1,0.48387406899928465
85,1065,FarLowNarrow,0.1,0.15,0.2,0.015848931924611127,1,0.35922332600057416
85,1066,FarHighNarrow,0.2,0.15,0.1,0.009999999999999995,1,0.45330216299953463
85,1067,FarHighNarrow,0.2,0.15,0.1,0.00794328234724281,1,0.4834045240004343
85,1068,FarLowWide,0.03,0.25,0.5,0.012589254117941666,0,0.3696747480007616
85,1069,FarLowWide,0.03,0.25,0.5,0.015848931924611127,0,0.3921603420003521
85,1070,FarLowNarrow,0.1,0.15,0.2,0.012589254117941666,0,0.9100228659990535
85,1071,FarLowWide,0.03,0.25,0.5,0.01995262314968879,1,0.48209865799981344
85,1072,FarLowWide,0.03,0.25,0.5,0.015848931924611127,1,0.521173123999688
85,1073,FarLowNarrow,0.1,0.15,0.2,0.015848931924611127,1,0.4061878020002041
85,1074,Constant,0.1,0.1,0.1,0.012589254117941666,1,0.6572984249996807
85,1075,Constant,0.1,0.1,0.1,0.009999999999999995,1,0.6635606489999191
85,1076,FarHighWide,0.5,0.25,0.03,0.01584893192461113,1,0.571703649000483
85,1077,FarHighWide,0.5,0.25,0.03,0.012589254117941668,1,0.44686266600001545
85,1078,Constant,0.1,0.1,0.1,0.00794328234724281,0,0.46811078100108716
85,1079,FarLowNarrow,0.1,0.15,0.2,0.012589254117941666,0,0.4260223119999864
85,1080,FarLowWide,0.03,0.25,0.5,0.012589254117941666,0,0.495778270998926
85,1081,FarHighNarrow,0.2,0.15,0.1,0.0063095734448019285,0,0.3565624500006379
85,1082,FarHighNarrow,0.2,0.15,0.1,0.00794328234724281,0,0.37094484999943234
85,1083,Constant,0.1,0.1,0.1,0.009999999999999995,0,0.4571065580003051
85,1084,FarLowWide,0.03,0.25,0.5,0.015848931924611127,0,0.5352809839987458
85,1085,ThreeLinesControl,0.0,0.0,0.1,0.012589254117941666,0,0.31775765900056285
85,1086,ThreeLinesControl,0.0,0.0,0.1,0.015848931924611127,0,0.43682682500002556
85,1087,FarLowNarrow,0.1,0.15,0.2,0.015848931924611127,0,0.34677628000099503
85,1088,ThreeLinesControl,0.0,0.0,0.1,0.01995262314968879,0,0.33486824499959766
85,1089,ThreeLinesControl,0.0,0.0,0.1,0.025118864315095794,1,0.4838640720008698
85,1090,FarLowWide,0.03,0.25,0.5,0.01995262314968879,0,0.44220218599912187
85,1091,Constant,0.1,0.1,0.1,0.012589254117941666,0,0.5256572700000106
85,1092,FarLowWide,0.03,0.25,0.5,0.025118864315095794,0,0.4194591949999449
85,1093,Constant,0.1,0.1,0.1,0.015848931924611127,1,0.5115545069984364
85,1094,FarLowWide_null,0.03,0.25,0.5,0.001995262314968878,1,0.6375490890004585
85,1095,Constant,0.1,0.1,0.1,0.012589254117941666,1,0.4509440519996133
85,1096,FarHighWide,0.5,0.25,0.03,0.009999999999999997,0,0.7369961849999527
85,1097,FarLowNarrow_null,0.1,0.15,0.2,0.012589254117941666,1,0.33500792599988927
85,1098,FarHighWide,0.5,0.25,0.03,0.012589254117941668,0,0.5415159019994462
85,1099,FarLowNarrow,0.1,0.15,0.2,0.01995262314968879,0,0.3953090979994158
85,1100,Constant,0.1,0.1,0.1,0.009999999999999995,0,0.5857165759989584
85,1101,FarHighWide,0.5,0.25,0.03,0.01584893192461113,1,0.6244027009997808
85,1102,ThreeLinesControl,0.0,0.0,0.1,0.01995262314968879,0,0.40560440300032496
85,1103,ThreeLinesControl,0.0,0.0,0.1,0.025118864315095794,1,0.5085225840011844
85,1104,FarLowNarrow,0.1,0.15,0.2,0.025118864315095794,0,0.5031535350008198
85,1105,ThreeLinesControl,0.0,0.0,0.1,0.01995262314968879,1,0.6051565010002378
85,1106,ThreeLinesControl_null,0.0,0.0,0.1,0.002511886431509578,1,0.4113586799994664
85,1107,FarLowWide,0.03,0.25,0.5,0.031622776601683784,1,0.4385351269993407
85,1108,FarLowWide,0.03,0.25,0.5,0.02511886431509579,1,0.36380574899885687
85,1109,FarHighWide,0.5,0.25,0.03,0.012589254117941668,1,0.6088427440008672
85,1110,FarLowWide,0.03,0.25,0.5,0.01995262314968879,1,0.5660457650010358
85,1111,FarLowNarrow,0.1,0.15,0.2,0.031622776601683784,1,0.41977323000173783
85,1112,ThreeLinesControl_null,0.0,0.0,0.1,0.001995262314968878,1,0.4341888749986538
85,1113,FarLowNarrow,0.1,0.15,0.2,0.02511886431509579,1,0.5287157919992751
85,1114,FarLowWide,0.03,0.25,0.5,0.015848931924611127,0,0.36654195799928857
85,1115,FarLowNarrow,0.1,0.15,0.2,0.01995262314968879,1,0.411844606998784
85,1116,FarLowWide,0.03,0.25,0.5,0.01995262314968879,1,0.466058008998516
85,1117,ThreeLinesControl,0.0,0.0,0.1,0.015848931924611127,1,0.45607189499969536
85,1118,Constant,0.1,0.1,0.1,0.012589254117941666,1,0.4621497160005674
85,1119,ThreeLinesControl,0.0,0.0,0.1,0.012589254117941666,1,0.3567350270004681
85,1120,FarLowWide,0.03,0.25,0.5,0.015848931924611127,1,0.30470944499938923
85,1121,Constant,0.1,0.1,0.1,0.009999999999999995,1,0.350618366001072
85,1122,Constant,0.1,0.1,0.1,0.00794328234724281,0,0.4043904259997362
85,1123,FarLowWide,0.03,0.25,0.5,0.012589254117941666,0,0.36812473899954057
85,1124,ThreeLinesControl_null,0.0,0.0,0.1,0.0015848931924611121,1,0.5331879149998713
85,1125,Constant,0.1,0.1,0.1,0.009999999999999995,1,0.5072529859990027
85,1126,Constant,0.1,0.1,0.1,0.00794328234724281,1,0.5275207670001691
85,1127,Constant,0.1,0.1,0.1,0.0063095734448019285,0,0.6616040440003417
85,1128,FarHighWide,0.5,0.25,0.03,0.009999999999999997,1,0.4355222159992991
85,1129,Constant,0.1,0.1,0.1,0.00794328234724281,1,0.8898387640001602
85,1130,Constant,0.1,0.1,0.1,0.0063095734448019285,0,0.4641117659994052
85,1131,FarHighWide_null,0.5,0.25,0.03,0.005011872336272719,1,0.5024037879993557
85,1132,Constant,0.1,0.1,0.1,0.00794328234724281,0,0.4514171560003888
85,1133,FarLowWide,0.03,0.25,0.5,0.015848931924611127,0,0.36161037199963175
85,1134,FarLowNarrow,0.1,0.15,0.2,0.015848931924611127,0,0.3986241959992185
85,1135,FarLowNarrow,0.1,0.15,0.2,0.01995262314968879,0,0.39669523800148454
85,1136,ThreeLinesControl,0.0,0.0,0.1,0.009999999999999995,0,0.4682723410005565
85,1137,Constant,0.1,0.1,0.1,0.009999999999999995,1,0.8070838009989529
85,1138,FarLowNarrow,0.1,0.15,0.2,0.025118864315095794,1,0.3724580159996549
85,1139,Constant,0.1,0.1,0.1,0.00794328234724281,0,0.576404140001614
85,1140,Constant,0.1,0.1,0.1,0.009999999999999995,1,0.40577992599901336
85,1141,FarHighWide_null,0.5,0.25,0.03,0.00398107170553497,1,0.6438085459994909
85,1142,ThreeLinesControl,0.0,0.0,0.1,0.012589254117941666,0,0.4329977750003309
85,1143,Constant,0.1,0.1,0.1,0.00794328234724281,0,0.5669579860004887
85,1144,FarLowWide,0.03,0.25,0.5,0.01995262314968879,0,0.4117481939993013
85,1145,FarHighWide_null,0.5,0.25,0.03,0.0031622776601683772,1,0.43407071299952804
85,1146,FarLowNarrow,0.1,0.15,0.2,0.01995262314968879,1,0.6325046230012958
85,1147,FarHighWide,0.5,0.25,0.03,0.007943282347242812,1,0.42257494399927964
85,1148,ThreeLinesControl,0.0,0.0,0.1,0.015848931924611127,1,0.34834146899993357
85,1149,FarLowNarrow,0.1,0.15,0.2,0.015848931924611127,1,0.32283303099939076
85,1150,FarLowNarrow,0.1,0.15,0.2,0.012589254117941666,0,0.4239468779996969
85,1151,FarLowWide,0.03,0.25,0.5,0.025118864315095794,1,0.37567632499849424
85,1152,FarHighWide,0.5,0.25,0.03,0.006309573444801929,0,0.61347146099979
85,1153,FarLowNarrow,0.1,0.15,0.2,0.015848931924611127,1,0.41543004300001485
85,1154,FarLowWide,0.03,0.25,0.5,0.01995262314968879,1,0.5186532820007415
85,1155,FarLowNarrow,0.1,0.15,0.2,0.012589254117941666,1,0.5527699439990101
85,1156,FarHighWide,0.5,0.25,0.03,0.007943282347242812,0,0.5514137059999484
85,1157,FarLowWide,0.03,0.25,0.5,0.015848931924611127,1,0.45316038799865055
85,1158,FarLowWide,0.03,0.25,0.5,0.012589254117941666,0,0.5543645800007653
85,1159,FarLowNarrow_null,0.1,0.15,0.2,0.009999999999999995,1,0.44733303700013494
85,1160,FarLowNarrow,0.1,0.15,0.2,0.009999999999999995,0,0.4535360249992664
85,1161,FarHighWide,0.5,0.25,0.03,0.009999999999999997,0,0.5475388770009886
85,1162,FarLowNarrow_null,0.1,0.15,0.2,0.00794328234724281,1,0.47274683700015885
85,1163,ThreeLinesControl,0.0,0.0,0.1,0.012589254117941666,1,0.5267779589994461
85,1164,FarHighWide,0.5,0.25,0.03,0.012589254117941668,1,0.4227678469997045
85,1165,FarHighWide,0.5,0.25,0.03,0.009999999999999997,1,0.46007617299983394
85,1166,ThreeLinesControl,0.0,0.0,0.1,0.009999999999999995,1,0.4084097759987344
85,1167,FarLowNarrow,0.1,0.15,0.2,0.012589254117941666,1,0.3985795299995516
85,1168,FarLowNarrow,0.1,0.15,0.2,0.009999999999999995,1,0.35667774899957294
85,1169,ThreeLinesControl,0.0,0.0,0.1,0.00794328234724281,1,0.35987144200043986
85,1170,ThreeLinesControl,0.0,0.0,0.1,0.0063095734448019285,0,0.5101550849994965
85,1171,FarHighWide,0.5,0.25,0.03,0.007943282347242812,1,0.39606711700071173
85,1172,Constant,0.1,0.1,0.1,0.009999999999999995,0,0.551266761000079
85,1173,Constant,0.1,0.1,0.1,0.012589254117941666,0,0.5655027239990886
85,1174,Constant,0.1,0.1,0.1,0.015848931924611127,1,0.4094566889998532
85,1175,FarHighWide,0.5,0.25,0.03,0.006309573444801929,1,0.3355028699988907
85,1176,ThreeLinesControl,0.0,0.0,0.1,0.00794328234724281,0,0.46896910600116826
85,1177,FarLowNarrow,0.1,0.15,0.2,0.00794328234724281,0,0.3628336239999044
85,1178,FarHighWide,0.5,0.25,0.03,0.00501187233627272,0,0.553281087999494
85,1179,FarLowNarrow,0.1,0.15,0.2,0.009999999999999995,0,0.3754758920003951
85,1180,FarHighWide,0.5,0.25,0.03,0.006309573444801929,0,0.3895815899995796
85,1181,Constant,0.1,0.1,0.1,0.012589254117941666,0,0.4041939540002204
85,1182,FarLowNarrow,0.1,0.15,0.2,0.012589254117941666,0,0.4580433249993803
85,1183,Constant,0.1,0.1,0.1,0.015848931924611127,1,0.46291172800010827
85,1184,Constant,0.1,0.1,0.1,0.012589254117941666,1,0.5491487799990864
85,1185,FarHighWide,0.5,0.25,0.03,0.007943282347242812,1,0.4563317609990918
85,1186,Constant,0.1,0.1,0.1,0.009999999999999995,0,0.4382217969996418
85,1187,Constant,0.1,0.1,0.1,0.012589254117941666,1,0.34065950799958955
85,1188,Constant,0.1,0.1,0.1,0.009999999999999995,0,0.5677788850007346
85,1189,Constant,0.1,0.1,0.1,0.012589254117941666,0,0.49392327099849354
85,1190,Constant,0.1,0.1,0.1,0.015848931924611127,0,0.3710564909997629
85,1191,Constant,0.1,0.1,0.1,0.01995262314968879,1,0.4239638469989586
85,1192,Constant,0.1,0.1,0.1,0.015848931924611127,1,0.4301744599997619
85,1193,Constant,0.1,0.1,0.1,0.012589254117941666,1,0.36338841500037233
85,1194,FarLowNarrow_null,0.1,0.15,0.2,0.0063095734448019285,1,0.38521604699963063
85,1195,FarLowNarrow_null,0.1,0.15,0.2,0.005011872336272719,1,0.4237521729992295
85,1196,FarLowNarrow_null,0.1,0.15,0.2,0.00398107170553497,1,0.45382533200063335
85,1197,FarLowNarrow_null,0.1,0.15,0.2,0.0031622776601683772,1,0.38125844199930725
85,1198,FarLowNarrow_null,0.1,0.15,0.2,0.002511886431509578,1,0.2838443239998014
85,1199,FarLowNarrow_null,0.1,0.15,0.2,0.001995262314968878,1,0.3044149979996291
