Participant_Number,Trial_Number,Condition,FCfar,FCmed,FCclose,Target_Contrast,Correct_Response,Reaction_Time
77,0,FarHighNarrow,0.2,0.15,0.1,0.1,1,0.5582953429984627
77,1,Constant,0.1,0.1,0.1,0.1,1,0.1875809310004115
77,2,FarLowNarrow_null,0.1,0.15,0.2,0.1,1,0.3457253490014409
77,3,FarHighWide,0.5,0.25,0.03,0.1,0,99
77,4,FarHighWide,0.5,0.25,0.03,0.1,1,0.2860481789975893
77,5,ThreeLinesControl,0.0,0.0,0.1,0.1,1,0.3962166810015333
77,6,FarLowNarrow,0.1,0.15,0.2,0.1,1,0.3547691690000647
77,7,ThreeLinesControl,0.0,0.0,0.1,0.07943282347242815,1,0.2817500420023862
77,8,FarHighNarrow,0.2,0.15,0.1,0.07943282347242815,1,0.3120925939983863
77,9,ThreeLinesControl,0.0,0.0,0.1,0.06309573444801932,1,0.2667280829991796
77,10,Constant_null,0.1,0.1,0.1,0.1,1,0.2967922310017457
77,11,FarLowNarrow,0.1,0.15,0.2,0.07943282347242815,1,0.2392076950018236
77,12,FarHighNarrow,0.2,0.15,0.1,0.06309573444801932,1,0.3061827900019125
77,13,FarHighNarrow,0.2,0.15,0.1,0.05011872336272722,1,0.30479149100210634
77,14,FarLowNarrow,0.1,0.15,0.2,0.06309573444801932,1,0.2838635529988096
77,15,FarLowNarrow,0.1,0.15,0.2,0.05011872336272722,1,0.24966096700154594
77,16,FarHighNarrow,0.2,0.15,0.1,0.03981071705534971,1,0.1915274640014104
77,17,ThreeLinesControl,0.0,0.0,0.1,0.05011872336272722,1,0.21403244199973415
77,18,FarHighNarrow,0.2,0.15,0.1,0.031622776601683784,1,0.17999035300090327
77,19,FarHighWide_null,0.5,0.25,0.03,0.1,1,0.3305690740016871
77,20,Constant,0.1,0.1,0.1,0.07943282347242815,1,0.22450869300155318
77,21,FarHighNarrow,0.2,0.15,0.1,0.02511886431509579,1,0.1823498349986039
77,22,ThreeLinesControl,0.0,0.0,0.1,0.03981071705534971,1,0.276030080000055
77,23,FarLowNarrow,0.1,0.15,0.2,0.03981071705534971,1,0.2498817820014665
77,24,FarHighNarrow,0.2,0.15,0.1,0.01995262314968879,1,0.22410860399759258
77,25,FarLowNarrow,0.1,0.15,0.2,0.031622776601683784,1,0.2273610619995452
77,26,Constant,0.1,0.1,0.1,0.06309573444801932,1,0.17739166699902853
77,27,ThreeLinesControl,0.0,0.0,0.1,0.031622776601683784,0,0.26342341499912436
77,28,FarLowWide,0.03,0.25,0.5,0.1,1,0.20261030799883883
77,29,FarHighWide_null,0.5,0.25,0.03,0.07943282347242815,1,0.40084640399800264
77,30,FarLowNarrow,0.1,0.15,0.2,0.02511886431509579,1,0.32681463999688276
77,31,FarHighNarrow,0.2,0.15,0.1,0.015848931924611127,1,0.2672243150009308
77,32,FarHighWide,0.5,0.25,0.03,0.07943282347242815,1,0.2331302210004651
77,33,ThreeLinesControl_null,0.0,0.0,0.1,0.1,1,0.3264452670009632
77,34,Constant,0.1,0.1,0.1,0.05011872336272722,1,0.23658930199962924
77,35,FarHighNarrow,0.2,0.15,0.1,0.012589254117941666,0,0.25867265700071584
77,36,ThreeLinesControl_null,0.0,0.0,0.1,0.07943282347242815,1,0.4566743619980116
77,37,FarHighWide_null,0.5,0.25,0.03,0.06309573444801932,1,0.35904065200156765
77,38,ThreeLinesControl,0.0,0.0,0.1,0.03981071705534971,1,0.26117711800179677
77,39,Constant_null,0.1,0.1,0.1,0.07943282347242815,0,0.30773852999845985
77,40,FarHighNarrow,0.2,0.15,0.1,0.015848931924611127,0,0.30546473099821014
77,41,Constant,0.1,0.1,0.1,0.03981071705534971,1,0.296120417999191
77,42,FarLowNarrow,0.1,0.15,0.2,0.01995262314968879,0,0.34671736100062844
77,43,Constant,0.1,0.1,0.1,0.031622776601683784,1,0.29661493900130154
77,44,FarLowWide,0.03,0.25,0.5,0.07943282347242815,1,0.2280367679995834
77,45,ThreeLinesControl,0.0,0.0,0.1,0.031622776601683784,1,0.21008533499843907
77,46,Constant,0.1,0.1,0.1,0.02511886431509579,1,0.2082891190002556
77,47,FarHighWide,0.5,0.25,0.03,0.06309573444801932,1,0.24436082000102033
77,48,Constant,0.1,0.1,0.1,0.01995262314968879,0,0.3145407490010257
77,49,FarHighWide,0.5,0.25,0.03,0.05011872336272722,1,0.24840076500186115
77,50,FarLowWide,0.03,0.25,0.5,0.06309573444801932,1,0.23763635500290547
77,51,FarHighWide,0.5,0.25,0.03,0.03981071705534971,1,0.23605763299929095
77,52,FarHighWide,0.5,0.25,0.03,0.031622776601683784,1,0.22619682699951227
77,53,FarHighNarrow,0.2,0.15,0.1,0.01995262314968879,0,0.27239626699883956
77,54,FarHighWide,0.5,0.25,0.03,0.02511886431509579,1,0.22239249400081462
77,55,ThreeLinesControl,0.0,0.0,0.1,0.02511886431509579,1,0.2516970159995253
77,56,FarHighWide,0.5,0.25,0.03,0.01995262314968879,1,0.24163526899792487
77,57,FarHighWide_null,0.5,0.25,0.03,0.05011872336272722,1,0.25568475899854093
77,58,Constant,0.1,0.1,0.1,0.025118864315095794,1,0.23520628400001442
77,59,Constant,0.1,0.1,0.1,0.01995262314968879,1,0.2730375240025751
77,60,Constant_null,0.1,0.1,0.1,0.1,1,0.26805893299751915
77,61,FarLowWide,0.03,0.25,0.5,0.05011872336272722,1,0.2584902870003134
77,62,FarLowNarrow,0.1,0.15,0.2,0.025118864315095794,1,0.2966680940007791
77,63,FarHighWide,0.5,0.25,0.03,0.015848931924611127,1,0.22859323999728076
77,64,FarLowWide,0.03,0.25,0.5,0.03981071705534971,0,0.2750531839992618
77,65,FarLowWide,0.03,0.25,0.5,0.05011872336272721,1,0.1932095339980151
77,66,FarLowWide_null,0.03,0.25,0.5,0.1,0,0.087011583000276
77,67,Constant,0.1,0.1,0.1,0.015848931924611127,1,0.2679592100030277
77,68,FarHighNarrow,0.2,0.15,0.1,0.025118864315095794,0,0.2742766359988309
77,69,FarHighWide,0.5,0.25,0.03,0.012589254117941666,1,0.3216737219991046
77,70,FarHighWide,0.5,0.25,0.03,0.009999999999999995,1,0.24771769099970697
77,71,Constant,0.1,0.1,0.1,0.012589254117941666,1,0.2689173379985732
77,72,FarLowWide,0.03,0.25,0.5,0.03981071705534971,1,0.23657917599848588
77,73,FarHighNarrow,0.2,0.15,0.1,0.031622776601683784,1,0.24122786299994914
77,74,FarLowWide,0.03,0.25,0.5,0.031622776601683784,1,0.2933510299990303
77,75,Constant,0.1,0.1,0.1,0.009999999999999995,0,0.33040204099961556
77,76,ThreeLinesControl,0.0,0.0,0.1,0.01995262314968879,1,0.2966875419988355
77,77,FarLowWide,0.03,0.25,0.5,0.02511886431509579,1,0.27598643000237644
77,78,FarHighWide_null,0.5,0.25,0.03,0.03981071705534971,1,0.33002245199895697
77,79,Constant,0.1,0.1,0.1,0.012589254117941666,0,0.3113294459981262
77,80,FarHighNarrow,0.2,0.15,0.1,0.02511886431509579,1,0.2851628120006353
77,81,FarLowWide,0.03,0.25,0.5,0.01995262314968879,1,0.274481600998115
77,82,FarHighWide,0.5,0.25,0.03,0.00794328234724281,1,0.4647171039978275
77,83,FarLowNarrow,0.1,0.15,0.2,0.01995262314968879,1,0.3185681069990096
77,84,FarHighWide,0.5,0.25,0.03,0.0063095734448019285,0,0.3720081109968305
77,85,FarHighWide,0.5,0.25,0.03,0.00794328234724281,1,0.2500471749990538
77,86,FarHighNarrow,0.2,0.15,0.1,0.01995262314968879,1,0.2572273230034625
77,87,FarLowNarrow_null,0.1,0.15,0.2,0.07943282347242815,1,0.3592718079999031
77,88,FarLowWide,0.03,0.25,0.5,0.015848931924611127,1,0.26056167800197727
77,89,Constant,0.1,0.1,0.1,0.015848931924611127,1,0.30663878500126884
77,90,FarHighWide,0.5,0.25,0.03,0.0063095734448019285,1,0.28570387400031905
77,91,ThreeLinesControl,0.0,0.0,0.1,0.015848931924611127,0,0.3320038080019003
77,92,FarLowWide,0.03,0.25,0.5,0.012589254117941666,0,0.3381283290000283
77,93,ThreeLinesControl,0.0,0.0,0.1,0.01995262314968879,1,0.3411841099987214
77,94,FarLowNarrow,0.1,0.15,0.2,0.015848931924611127,0,0.37151019999873824
77,95,FarHighNarrow,0.2,0.15,0.1,0.015848931924611127,1,0.32149970899990876
77,96,FarHighWide,0.5,0.25,0.03,0.005011872336272719,0,0.3253995860031864
77,97,FarLowWide,0.03,0.25,0.5,0.015848931924611127,0,0.3397142989997519
77,98,FarHighWide,0.5,0.25,0.03,0.0063095734448019285,1,0.3380629300008877
77,99,FarLowNarrow,0.1,0.15,0.2,0.01995262314968879,0,0.33511821600041003
77,100,FarHighWide,0.5,0.25,0.03,0.005011872336272719,0,0.33315833999949973
77,101,FarLowNarrow,0.1,0.15,0.2,0.025118864315095794,1,0.4514725249973708
77,102,FarLowNarrow,0.1,0.15,0.2,0.01995262314968879,1,0.3629606219983543
77,103,FarHighWide,0.5,0.25,0.03,0.0063095734448019285,0,0.3217077160006738
77,104,FarHighWide_null,0.5,0.25,0.03,0.031622776601683784,1,0.3658511940011522
77,105,FarHighWide,0.5,0.25,0.03,0.00794328234724281,0,0.33211629200013704
77,106,Constant,0.1,0.1,0.1,0.012589254117941666,0,0.5029008450001129
77,107,FarLowNarrow,0.1,0.15,0.2,0.015848931924611127,1,0.2613045609978144
77,108,FarHighWide,0.5,0.25,0.03,0.009999999999999995,1,0.2754504260010435
77,109,ThreeLinesControl,0.0,0.0,0.1,0.015848931924611127,1,0.2708076679991791
77,110,FarLowWide,0.03,0.25,0.5,0.01995262314968879,1,0.2846007239968458
77,111,FarHighNarrow,0.2,0.15,0.1,0.012589254117941666,1,0.3388401159973
77,112,FarHighNarrow,0.2,0.15,0.1,0.009999999999999995,1,0.31997300700095366
77,113,Constant,0.1,0.1,0.1,0.015848931924611127,0,0.26872880199880456
77,114,FarHighNarrow,0.2,0.15,0.1,0.00794328234724281,1,0.395095150997804
77,115,FarHighWide,0.5,0.25,0.03,0.00794328234724281,1,0.26557955800308264
77,116,Constant,0.1,0.1,0.1,0.01995262314968879,1,0.28772967099939706
77,117,ThreeLinesControl,0.0,0.0,0.1,0.012589254117941666,0,0.30177903399817296
77,118,FarHighWide,0.5,0.25,0.03,0.0063095734448019285,0,0.3650192219974997
77,119,FarHighNarrow,0.2,0.15,0.1,0.0063095734448019285,0,0.3230438869977661
77,120,FarHighNarrow,0.2,0.15,0.1,0.00794328234724281,0,0.338682620000327
77,121,Constant,0.1,0.1,0.1,0.015848931924611127,1,0.28777086899935966
77,122,ThreeLinesControl,0.0,0.0,0.1,0.015848931924611127,0,0.4542689660011092
77,123,FarHighNarrow,0.2,0.15,0.1,0.009999999999999995,1,0.3004127359999984
77,124,Constant,0.1,0.1,0.1,0.012589254117941666,1,0.3234116659987194
77,125,FarLowWide,0.03,0.25,0.5,0.015848931924611127,0,0.32929947200318566
77,126,FarHighWide,0.5,0.25,0.03,0.00794328234724281,1,0.3344547529995907
77,127,FarLowNarrow,0.1,0.15,0.2,0.012589254117941666,1,0.3000303869994241
77,128,FarLowWide,0.03,0.25,0.5,0.01995262314968879,0,0.34294177099945955
77,129,ThreeLinesControl,0.0,0.0,0.1,0.01995262314968879,0,0.3731277039987617
77,130,FarHighWide,0.5,0.25,0.03,0.0063095734448019285,0,99
77,131,Constant,0.1,0.1,0.1,0.009999999999999995,1,0.33431111199752195
77,132,FarHighNarrow,0.2,0.15,0.1,0.00794328234724281,0,0.3798352000012528
77,133,FarHighNarrow,0.2,0.15,0.1,0.009999999999999995,1,0.3227519169995503
77,134,FarHighWide,0.5,0.25,0.03,0.00794328234724281,0,0.4156942310000886
77,135,Constant,0.1,0.1,0.1,0.00794328234724281,1,0.38181268599873874
77,136,FarLowWide,0.03,0.25,0.5,0.025118864315095794,1,0.31615691499973764
77,137,ThreeLinesControl,0.0,0.0,0.1,0.025118864315095794,1,0.38633603999915067
77,138,Constant,0.1,0.1,0.1,0.0063095734448019285,0,0.32726961599837523
77,139,FarLowNarrow,0.1,0.15,0.2,0.009999999999999995,0,0.5180894449986226
77,140,FarHighNarrow,0.2,0.15,0.1,0.00794328234724281,1,0.4052440880004724
77,141,FarLowNarrow,0.1,0.15,0.2,0.012589254117941666,0,0.33909501200105296
77,142,Constant,0.1,0.1,0.1,0.00794328234724281,0,0.39904049599863356
77,143,ThreeLinesControl_null,0.0,0.0,0.1,0.06309573444801932,1,0.3653361760007101
77,144,FarLowWide,0.03,0.25,0.5,0.01995262314968879,0,0.2963653869992413
77,145,FarLowNarrow,0.1,0.15,0.2,0.015848931924611127,0,0.31039251900074305
77,146,Constant,0.1,0.1,0.1,0.009999999999999995,1,0.32459084799847915
77,147,ThreeLinesControl_null,0.0,0.0,0.1,0.05011872336272722,1,0.2876660500005528
77,148,Constant,0.1,0.1,0.1,0.00794328234724281,1,0.3657985790014209
77,149,Constant,0.1,0.1,0.1,0.0063095734448019285,0,0.3629360449995147
77,150,FarLowNarrow,0.1,0.15,0.2,0.01995262314968879,0,0.4170306120031455
77,151,ThreeLinesControl_null,0.0,0.0,0.1,0.03981071705534971,1,0.47932969700195827
77,152,Constant,0.1,0.1,0.1,0.00794328234724281,1,0.3334865990000253
77,153,ThreeLinesControl,0.0,0.0,0.1,0.01995262314968879,0,0.3549858980004501
77,154,ThreeLinesControl,0.0,0.0,0.1,0.025118864315095794,1,0.4255790920033178
77,155,FarLowNarrow,0.1,0.15,0.2,0.025118864315095794,1,0.2885944629997539
77,156,FarHighWide,0.5,0.25,0.03,0.009999999999999995,1,0.3983750459992734
77,157,FarLowNarrow,0.1,0.15,0.2,0.01995262314968879,0,0.42137689699666225
77,158,FarHighWide,0.5,0.25,0.03,0.00794328234724281,1,0.40146566399926087
77,159,ThreeLinesControl,0.0,0.0,0.1,0.01995262314968879,1,0.4543774990015663
77,160,Constant,0.1,0.1,0.1,0.0063095734448019285,1,0.37236382300034165
77,161,Constant_null,0.1,0.1,0.1,0.07943282347242815,1,0.4555977800009714
77,162,FarLowWide,0.03,0.25,0.5,0.025118864315095794,1,0.37388600800113636
77,163,FarHighNarrow,0.2,0.15,0.1,0.0063095734448019285,1,0.3130670540012943
77,164,ThreeLinesControl,0.0,0.0,0.1,0.015848931924611127,1,0.3272950659993512
77,165,Constant,0.1,0.1,0.1,0.005011872336272719,0,0.35708896800133516
77,166,FarLowNarrow,0.1,0.15,0.2,0.025118864315095794,1,0.2676334889983991
77,167,FarLowNarrow,0.1,0.15,0.2,0.01995262314968879,0,0.38562562899824115
77,168,FarLowNarrow_null,0.1,0.15,0.2,0.06309573444801932,0,0.27968123000027845
77,169,FarLowWide,0.03,0.25,0.5,0.01995262314968879,1,0.4459084520021861
77,170,FarLowWide,0.03,0.25,0.5,0.015848931924611127,1,0.4353511339977558
77,171,ThreeLinesControl,0.0,0.0,0.1,0.012589254117941666,0,0.3771052960000816
77,172,Constant_null,0.1,0.1,0.1,0.06309573444801932,1,0.4236002610014111
77,173,FarLowNarrow,0.1,0.15,0.2,0.025118864315095794,1,0.2868187990025035
77,174,FarHighNarrow,0.2,0.15,0.1,0.005011872336272719,1,0.40962884799955646
77,175,FarLowWide,0.03,0.25,0.5,0.012589254117941666,1,0.5835164769996481
77,176,FarLowNarrow_null,0.1,0.15,0.2,0.07943282347242814,1,0.3502313970020623
77,177,ThreeLinesControl,0.0,0.0,0.1,0.015848931924611127,1,0.329268133998994
77,178,FarHighWide_null,0.5,0.25,0.03,0.02511886431509579,1,0.37544175400034874
77,179,FarHighNarrow,0.2,0.15,0.1,0.00398107170553497,0,0.3014947670017136
77,180,FarHighWide,0.5,0.25,0.03,0.0063095734448019285,0,0.3044990449998295
77,181,FarLowNarrow,0.1,0.15,0.2,0.01995262314968879,1,0.3505191289987124
77,182,FarHighWide,0.5,0.25,0.03,0.00794328234724281,0,0.38102540299951215
77,183,FarLowNarrow,0.1,0.15,0.2,0.015848931924611127,1,0.315054336002504
77,184,FarLowWide,0.03,0.25,0.5,0.009999999999999995,1,0.2972171649998927
77,185,FarHighWide,0.5,0.25,0.03,0.009999999999999995,0,0.4223027349980839
77,186,FarLowWide_null,0.03,0.25,0.5,0.1,1,0.3333641200006241
77,187,FarHighWide,0.5,0.25,0.03,0.012589254117941666,1,0.32276509100120165
77,188,FarLowWide,0.03,0.25,0.5,0.00794328234724281,0,0.3291472689998045
77,189,FarHighNarrow,0.2,0.15,0.1,0.00501187233627272,1,0.536437221999222
77,190,FarHighWide,0.5,0.25,0.03,0.009999999999999995,1,0.3752867809998861
77,191,FarHighNarrow,0.2,0.15,0.1,0.00398107170553497,0,0.38605377600106294
77,192,FarHighWide,0.5,0.25,0.03,0.00794328234724281,0,0.4162546420011495
77,193,FarHighWide,0.5,0.25,0.03,0.009999999999999995,0,0.49149598499934655
77,194,FarLowNarrow,0.1,0.15,0.2,0.012589254117941666,1,0.36878870600048685
77,195,FarHighWide_null,0.5,0.25,0.03,0.01995262314968879,1,0.33299488500051666
77,196,ThreeLinesControl,0.0,0.0,0.1,0.012589254117941666,1,0.6009447220021684
77,197,Constant_null,0.1,0.1,0.1,0.05011872336272722,1,0.5033066229989345
77,198,FarLowWide,0.03,0.25,0.5,0.009999999999999995,0,0.5251409349984897
77,199,Constant,0.1,0.1,0.1,0.0063095734448019285,1,0.4825138340020203
77,200,FarHighNarrow,0.2,0.15,0.1,0.00501187233627272,0,0.41672532499796944
77,201,FarHighWide,0.5,0.25,0.03,0.012589254117941666,0,0.4225515819998691
77,202,Constant,0.1,0.1,0.1,0.005011872336272719,0,0.6529868309989979
77,203,FarLowNarrow_null,0.1,0.15,0.2,0.06309573444801932,1,0.44314271199982613
77,204,FarLowNarrow,0.1,0.15,0.2,0.009999999999999995,0,0.43215980300010415
77,205,FarHighWide,0.5,0.25,0.03,0.015848931924611127,0,0.4469844840023143
77,206,FarLowNarrow_null,0.1,0.15,0.2,0.05011872336272722,1,0.46959889799836674
77,207,ThreeLinesControl,0.0,0.0,0.1,0.009999999999999995,0,0.44053418900148245
77,208,FarHighNarrow,0.2,0.15,0.1,0.006309573444801929,0,0.5188316130006569
77,209,ThreeLinesControl,0.0,0.0,0.1,0.012589254117941666,1,0.3777896440005861
77,210,ThreeLinesControl,0.0,0.0,0.1,0.009999999999999995,0,0.343816679000156
77,211,FarLowWide,0.03,0.25,0.5,0.012589254117941666,0,0.374191085997154
77,212,FarLowNarrow,0.1,0.15,0.2,0.012589254117941666,0,0.3784411550004734
77,213,ThreeLinesControl,0.0,0.0,0.1,0.012589254117941666,1,0.4724137849989347
77,214,Constant_null,0.1,0.1,0.1,0.03981071705534971,1,0.4546799909985566
77,215,FarHighNarrow,0.2,0.15,0.1,0.007943282347242812,1,0.4517854419973446
77,216,Constant,0.1,0.1,0.1,0.0063095734448019285,0,0.37769967900021584
77,217,Constant,0.1,0.1,0.1,0.00794328234724281,0,0.5439938299969072
77,218,FarHighNarrow,0.2,0.15,0.1,0.006309573444801929,0,0.43822818999979063
77,219,Constant,0.1,0.1,0.1,0.009999999999999995,0,0.3964562349974585
77,220,ThreeLinesControl,0.0,0.0,0.1,0.009999999999999995,0,0.47493389500232297
77,221,ThreeLinesControl,0.0,0.0,0.1,0.012589254117941666,0,0.35262067900112015
77,222,FarHighNarrow,0.2,0.15,0.1,0.007943282347242812,0,0.37506949300222914
77,223,FarLowNarrow,0.1,0.15,0.2,0.015848931924611127,1,0.3939807930000825
77,224,FarLowNarrow,0.1,0.15,0.2,0.012589254117941666,1,0.5840726280002855
77,225,FarHighNarrow,0.2,0.15,0.1,0.009999999999999997,0,0.49423023000053945
77,226,FarLowWide,0.03,0.25,0.5,0.015848931924611127,1,0.45731899499878637
77,227,Constant,0.1,0.1,0.1,0.012589254117941666,0,0.47154779999982566
77,228,FarHighWide,0.5,0.25,0.03,0.01995262314968879,0,0.4596132149999903
77,229,Constant,0.1,0.1,0.1,0.015848931924611127,1,0.33775124100066023
77,230,Constant,0.1,0.1,0.1,0.012589254117941666,0,0.4309008320014982
77,231,Constant_null,0.1,0.1,0.1,0.031622776601683784,1,0.3651558659985312
77,232,FarHighWide,0.5,0.25,0.03,0.025118864315095794,1,0.49937631099965074
77,233,FarLowWide,0.03,0.25,0.5,0.012589254117941666,0,0.39325334499881137
77,234,ThreeLinesControl,0.0,0.0,0.1,0.015848931924611127,0,0.41557527799886884
77,235,ThreeLinesControl,0.0,0.0,0.1,0.01995262314968879,0,0.40563072800068767
77,236,FarLowWide,0.03,0.25,0.5,0.015848931924611127,1,0.3631825939992268
77,237,FarHighWide_null,0.5,0.25,0.03,0.015848931924611127,1,0.5307242460003181
77,238,FarHighNarrow,0.2,0.15,0.1,0.012589254117941668,0,0.6961981229978846
77,239,Constant,0.1,0.1,0.1,0.015848931924611127,1,0.45134066399987205
77,240,FarLowWide,0.03,0.25,0.5,0.012589254117941666,1,0.25602007799898274
77,241,Constant,0.1,0.1,0.1,0.012589254117941666,0,0.31021295300161
77,242,FarLowWide,0.03,0.25,0.5,0.009999999999999995,0,0.2495719869984896
77,243,FarHighNarrow,0.2,0.15,0.1,0.01584893192461113,0,0.2713008170030662
77,244,FarLowWide,0.03,0.25,0.5,0.012589254117941666,0,0.285926009000832
77,245,ThreeLinesControl,0.0,0.0,0.1,0.025118864315095794,1,0.2567051959995297
77,246,Constant,0.1,0.1,0.1,0.015848931924611127,1,0.2938163109974994
77,247,ThreeLinesControl,0.0,0.0,0.1,0.01995262314968879,1,0.2923490010034584
77,248,FarHighNarrow,0.2,0.15,0.1,0.019952623149688792,1,0.29036143200210063
77,249,FarLowWide,0.03,0.25,0.5,0.015848931924611127,1,0.312255543001811
77,250,FarHighNarrow,0.2,0.15,0.1,0.01584893192461113,1,0.2945437540001876
77,251,ThreeLinesControl_null,0.0,0.0,0.1,0.031622776601683784,1,0.33959766999760177
77,252,FarHighWide,0.5,0.25,0.03,0.01995262314968879,1,0.31295811599920853
77,253,FarHighNarrow_null,0.2,0.15,0.1,0.1,0,0.31107552299727104
77,254,ThreeLinesControl_null,0.0,0.0,0.1,0.02511886431509579,1,0.31061574400155223
77,255,FarHighWide,0.5,0.25,0.03,0.015848931924611127,1,0.3325710440003604
77,256,FarLowNarrow,0.1,0.15,0.2,0.009999999999999995,0,0.392500795001979
77,257,Constant_null,0.1,0.1,0.1,0.02511886431509579,0,0.44661676100076875
77,258,FarHighNarrow_null,0.2,0.15,0.1,0.1,0,0.3540311040014785
77,259,ThreeLinesControl,0.0,0.0,0.1,0.015848931924611127,1,0.3119413039967185
77,260,FarLowWide,0.03,0.25,0.5,0.012589254117941666,0,0.39820222499838565
77,261,Constant,0.1,0.1,0.1,0.012589254117941666,1,0.31328174699956435
77,262,Constant,0.1,0.1,0.1,0.009999999999999995,1,0.31851513699803036
77,263,FarLowWide,0.03,0.25,0.5,0.015848931924611127,1,0.3253403890012123
77,264,FarLowNarrow,0.1,0.15,0.2,0.012589254117941666,1,0.33068133699998725
77,265,FarLowWide,0.03,0.25,0.5,0.012589254117941666,0,0.36881482700118795
77,266,FarHighNarrow,0.2,0.15,0.1,0.012589254117941668,1,0.33494755900028395
77,267,FarLowWide,0.03,0.25,0.5,0.015848931924611127,1,0.33326552599828574
77,268,Constant_null,0.1,0.1,0.1,0.031622776601683784,1,0.41133494899986545
77,269,Constant,0.1,0.1,0.1,0.00794328234724281,1,0.3456727690027037
77,270,FarHighWide,0.5,0.25,0.03,0.012589254117941666,0,0.48004501600007643
77,271,FarLowNarrow,0.1,0.15,0.2,0.009999999999999995,0,0.3990275210016989
77,272,FarHighWide,0.5,0.25,0.03,0.015848931924611127,1,0.30688666999776615
77,273,FarHighNarrow,0.2,0.15,0.1,0.009999999999999997,1,0.39204300200071884
77,274,FarLowWide,0.03,0.25,0.5,0.012589254117941666,0,0.3873388940010045
77,275,FarLowNarrow,0.1,0.15,0.2,0.012589254117941666,1,0.4013114530025632
77,276,FarHighNarrow,0.2,0.15,0.1,0.007943282347242812,0,0.41551978400093503
77,277,Constant,0.1,0.1,0.1,0.0063095734448019285,1,0.346595424998668
77,278,FarLowNarrow,0.1,0.15,0.2,0.009999999999999995,1,0.2808657329987909
77,279,FarLowWide,0.03,0.25,0.5,0.015848931924611127,1,0.2868061139997735
77,280,FarLowNarrow,0.1,0.15,0.2,0.00794328234724281,1,0.3652131790004205
77,281,FarLowWide,0.03,0.25,0.5,0.012589254117941666,0,0.3314741000031063
77,282,FarHighWide,0.5,0.25,0.03,0.012589254117941666,0,0.4253824320003332
77,283,FarHighNarrow,0.2,0.15,0.1,0.009999999999999997,1,0.31012364399794023
77,284,FarLowNarrow,0.1,0.15,0.2,0.0063095734448019285,0,0.43652237199785304
77,285,FarLowNarrow,0.1,0.15,0.2,0.00794328234724281,1,0.30716871399999945
77,286,FarLowNarrow,0.1,0.15,0.2,0.0063095734448019285,0,0.378269591001299
77,287,FarLowNarrow,0.1,0.15,0.2,0.00794328234724281,0,0.4324347130022943
77,288,FarHighWide,0.5,0.25,0.03,0.015848931924611127,1,0.39633273399886093
77,289,Constant,0.1,0.1,0.1,0.005011872336272719,0,0.4026445310009876
77,290,ThreeLinesControl,0.0,0.0,0.1,0.012589254117941666,0,0.38449997199859354
77,291,Constant,0.1,0.1,0.1,0.0063095734448019285,1,0.31472493200271856
77,292,Constant,0.1,0.1,0.1,0.005011872336272719,1,0.3608792960003484
77,293,Constant,0.1,0.1,0.1,0.00398107170553497,0,0.3722723059981945
77,294,FarHighWide,0.5,0.25,0.03,0.012589254117941666,1,0.44309414599774755
77,295,ThreeLinesControl,0.0,0.0,0.1,0.015848931924611127,0,0.3774059999996098
77,296,Constant,0.1,0.1,0.1,0.00501187233627272,0,0.3742208750009013
77,297,FarLowWide,0.03,0.25,0.5,0.015848931924611127,1,0.2923866819983232
77,298,FarHighNarrow,0.2,0.15,0.1,0.007943282347242812,1,0.25062092799998936
77,299,ThreeLinesControl,0.0,0.0,0.1,0.01995262314968879,1,0.265065269999468
77,300,FarHighWide,0.5,0.25,0.03,0.009999999999999995,0,0.2872013069973036
77,301,FarLowWide,0.03,0.25,0.5,0.012589254117941666,0,0.35635492199799046
77,302,FarLowNarrow,0.1,0.15,0.2,0.009999999999999995,1,0.31537400399975013
77,303,FarHighWide,0.5,0.25,0.03,0.012589254117941666,1,0.29758384200249566
77,304,Constant,0.1,0.1,0.1,0.006309573444801929,1,0.3419039000000339
77,305,FarLowNarrow,0.1,0.15,0.2,0.00794328234724281,0,0.3867661589974887
77,306,ThreeLinesControl,0.0,0.0,0.1,0.015848931924611127,1,0.28095083399966825
77,307,Constant,0.1,0.1,0.1,0.00501187233627272,0,0.3563173310030834
77,308,FarHighNarrow,0.2,0.15,0.1,0.006309573444801929,1,0.2979627150016313
77,309,FarHighNarrow_null,0.2,0.15,0.1,0.1,1,0.3434766789978312
77,310,FarHighWide,0.5,0.25,0.03,0.009999999999999995,1,0.3065314010018483
77,311,ThreeLinesControl,0.0,0.0,0.1,0.012589254117941666,1,0.5366397750003671
77,312,FarLowWide,0.03,0.25,0.5,0.015848931924611127,0,0.3428587729977153
77,313,FarLowNarrow,0.1,0.15,0.2,0.009999999999999995,1,0.4444231240013323
77,314,FarLowWide,0.03,0.25,0.5,0.01995262314968879,0,0.3710087389990804
77,315,FarHighNarrow_null,0.2,0.15,0.1,0.07943282347242815,0,0.3052896179979143
77,316,FarHighWide,0.5,0.25,0.03,0.00794328234724281,0,0.37400852299833787
77,317,FarHighNarrow,0.2,0.15,0.1,0.00501187233627272,0,0.4684623909997754
77,318,FarHighWide,0.5,0.25,0.03,0.009999999999999995,0,0.386770166001952
77,319,ThreeLinesControl,0.0,0.0,0.1,0.009999999999999995,0,0.3450026560021797
77,320,ThreeLinesControl,0.0,0.0,0.1,0.012589254117941666,1,0.5279728710011113
77,321,FarLowWide,0.03,0.25,0.5,0.025118864315095794,0,0.29925366300085443
77,322,FarLowNarrow,0.1,0.15,0.2,0.00794328234724281,1,0.36930989299798966
77,323,FarLowWide,0.03,0.25,0.5,0.031622776601683784,1,0.2845954270014772
77,324,ThreeLinesControl,0.0,0.0,0.1,0.009999999999999995,1,0.4266882779993466
77,325,FarHighWide,0.5,0.25,0.03,0.012589254117941666,0,0.39170423399991705
77,326,Constant,0.1,0.1,0.1,0.006309573444801929,0,0.3876749189985276
77,327,FarLowNarrow,0.1,0.15,0.2,0.0063095734448019285,0,0.4978930510005739
77,328,Constant,0.1,0.1,0.1,0.007943282347242812,1,0.5122217030002503
77,329,FarHighNarrow,0.2,0.15,0.1,0.006309573444801929,1,0.4462922159982554
77,330,FarHighWide,0.5,0.25,0.03,0.015848931924611127,1,0.3483974600021611
77,331,Constant,0.1,0.1,0.1,0.006309573444801929,0,0.35496459700152627
77,332,FarHighWide,0.5,0.25,0.03,0.012589254117941666,0,0.42394875900208717
77,333,FarLowWide,0.03,0.25,0.5,0.02511886431509579,1,0.3497914409999794
77,334,FarHighWide,0.5,0.25,0.03,0.015848931924611127,0,0.3311115630021959
77,335,FarLowNarrow,0.1,0.15,0.2,0.00794328234724281,0,0.48252596100064693
77,336,FarLowWide,0.03,0.25,0.5,0.01995262314968879,0,0.3859477770020021
77,337,ThreeLinesControl,0.0,0.0,0.1,0.00794328234724281,1,0.3327482210006565
77,338,FarHighWide,0.5,0.25,0.03,0.01995262314968879,1,0.3465413659978367
77,339,FarLowNarrow,0.1,0.15,0.2,0.009999999999999995,1,0.35045373200046015
77,340,FarLowNarrow,0.1,0.15,0.2,0.00794328234724281,1,0.43605932200080133
77,341,Constant,0.1,0.1,0.1,0.007943282347242812,1,0.49032144300144864
77,342,FarHighWide,0.5,0.25,0.03,0.015848931924611127,1,0.3902906549992622
77,343,Constant,0.1,0.1,0.1,0.006309573444801929,0,0.37256256499676965
77,344,Constant,0.1,0.1,0.1,0.007943282347242812,0,0.393522957998357
77,345,FarLowWide,0.03,0.25,0.5,0.025118864315095794,1,0.2554220919992076
77,346,FarLowWide,0.03,0.25,0.5,0.01995262314968879,1,0.32574982100049965
77,347,FarHighWide,0.5,0.25,0.03,0.012589254117941666,1,0.35606719000134035
77,348,FarLowWide,0.03,0.25,0.5,0.015848931924611127,0,0.34602219099906506
77,349,FarHighNarrow,0.2,0.15,0.1,0.00501187233627272,0,0.3920646019978449
77,350,FarHighWide,0.5,0.25,0.03,0.009999999999999995,1,0.3655760130022827
77,351,FarHighNarrow,0.2,0.15,0.1,0.006309573444801929,1,0.3953971699993417
77,352,FarLowWide,0.03,0.25,0.5,0.01995262314968879,0,0.31492699600130436
77,353,Constant,0.1,0.1,0.1,0.009999999999999997,1,0.4058451389973925
77,354,FarHighNarrow,0.2,0.15,0.1,0.00501187233627272,1,0.38799573999858694
77,355,FarLowNarrow_null,0.1,0.15,0.2,0.03981071705534971,1,0.2984034879991668
77,356,FarLowWide,0.03,0.25,0.5,0.025118864315095794,0,0.3494612729991786
77,357,FarHighWide,0.5,0.25,0.03,0.00794328234724281,1,0.6264234150003176
77,358,ThreeLinesControl,0.0,0.0,0.1,0.0063095734448019285,0,0.4796363940004085
77,359,FarHighWide,0.5,0.25,0.03,0.0063095734448019285,0,0.43792973599920515
77,360,FarHighWide,0.5,0.25,0.03,0.00794328234724281,0,0.42149047900238656
77,361,FarLowNarrow,0.1,0.15,0.2,0.0063095734448019285,0,0.28347612300058245
77,362,FarLowNarrow,0.1,0.15,0.2,0.00794328234724281,0,0.32829684099851875
77,363,FarHighNarrow,0.2,0.15,0.1,0.00398107170553497,1,0.2921215719979955
77,364,FarLowWide,0.03,0.25,0.5,0.031622776601683784,1,0.25771515000087675
77,365,ThreeLinesControl,0.0,0.0,0.1,0.00794328234724281,1,0.3840489020003588
77,366,FarLowWide,0.03,0.25,0.5,0.02511886431509579,1,0.44306363400028204
77,367,Constant,0.1,0.1,0.1,0.007943282347242812,1,0.3218014949998178
77,368,FarLowNarrow,0.1,0.15,0.2,0.009999999999999995,1,0.4716153839981416
77,369,FarHighNarrow,0.2,0.15,0.1,0.0031622776601683772,1,0.37346050799897057
77,370,FarHighWide,0.5,0.25,0.03,0.009999999999999995,1,0.3479182500013849
77,371,FarHighNarrow,0.2,0.15,0.1,0.002511886431509578,0,0.4180872510005429
77,372,FarLowNarrow,0.1,0.15,0.2,0.00794328234724281,0,0.5122747549976339
77,373,FarLowNarrow,0.1,0.15,0.2,0.009999999999999995,0,0.4953165090009861
77,374,FarLowWide,0.03,0.25,0.5,0.01995262314968879,0,0.4430515700005344
77,375,Constant,0.1,0.1,0.1,0.006309573444801929,0,0.40152620200024103
77,376,Constant,0.1,0.1,0.1,0.007943282347242812,1,0.36766945899944403
77,377,FarLowWide,0.03,0.25,0.5,0.025118864315095794,1,0.38692104000074323
77,378,FarLowWide,0.03,0.25,0.5,0.01995262314968879,0,0.4328336090002267
77,379,FarHighNarrow,0.2,0.15,0.1,0.0031622776601683772,1,0.5482238359982148
77,380,FarLowWide,0.03,0.25,0.5,0.025118864315095794,1,0.49821148499904666
77,381,FarLowNarrow,0.1,0.15,0.2,0.012589254117941666,0,0.34314607699707267
77,382,ThreeLinesControl,0.0,0.0,0.1,0.0063095734448019285,1,0.39626551599940285
77,383,FarLowWide,0.03,0.25,0.5,0.01995262314968879,1,0.31443879200014635
77,384,ThreeLinesControl,0.0,0.0,0.1,0.005011872336272719,0,0.6485630589995708
77,385,FarHighWide,0.5,0.25,0.03,0.00794328234724281,1,0.37496595099946717
77,386,ThreeLinesControl,0.0,0.0,0.1,0.0063095734448019285,0,0.36428274900026736
77,387,Constant,0.1,0.1,0.1,0.006309573444801929,0,0.4673673610013793
77,388,FarLowWide,0.03,0.25,0.5,0.015848931924611127,0,0.4417234410029778
77,389,FarLowWide,0.03,0.25,0.5,0.01995262314968879,1,0.30479528099749587
77,390,FarLowWide,0.03,0.25,0.5,0.015848931924611127,1,0.4034161630006565
77,391,Constant,0.1,0.1,0.1,0.007943282347242812,1,0.36291935999906855
77,392,ThreeLinesControl,0.0,0.0,0.1,0.00794328234724281,1,0.4490347989994916
77,393,ThreeLinesControl_null,0.0,0.0,0.1,0.01995262314968879,1,0.4118496810006036
77,394,FarHighWide,0.5,0.25,0.03,0.0063095734448019285,0,0.41727929600165226
77,395,ThreeLinesControl,0.0,0.0,0.1,0.0063095734448019285,0,0.36710052600028575
77,396,Constant,0.1,0.1,0.1,0.006309573444801929,1,0.4504894709971268
77,397,FarHighNarrow_null,0.2,0.15,0.1,0.1,1,0.41672449500038056
77,398,FarHighNarrow,0.2,0.15,0.1,0.002511886431509578,1,0.5179706800008717
77,399,Constant,0.1,0.1,0.1,0.00501187233627272,1,0.3879844139992201
77,400,Constant,0.1,0.1,0.1,0.00398107170553497,0,0.43417458000112674
77,401,ThreeLinesControl,0.0,0.0,0.1,0.00794328234724281,0,0.4563772510009585
77,402,FarLowWide,0.03,0.25,0.5,0.012589254117941666,1,0.3584411119991273
77,403,FarLowNarrow,0.1,0.15,0.2,0.015848931924611127,1,0.323704569000256
77,404,Constant,0.1,0.1,0.1,0.00501187233627272,1,0.4351461999976891
77,405,FarLowWide,0.03,0.25,0.5,0.009999999999999995,0,0.39331186699928367
77,406,FarHighNarrow,0.2,0.15,0.1,0.001995262314968878,1,0.4160180079998099
77,407,ThreeLinesControl_null,0.0,0.0,0.1,0.015848931924611127,1,0.37991772500026855
77,408,Constant,0.1,0.1,0.1,0.00398107170553497,1,0.3941583289997652
77,409,ThreeLinesControl,0.0,0.0,0.1,0.009999999999999995,1,0.36518873699969845
77,410,FarHighWide,0.5,0.25,0.03,0.00794328234724281,0,0.339679247001186
77,411,FarHighWide,0.5,0.25,0.03,0.009999999999999995,1,0.43379951899987645
77,412,Constant,0.1,0.1,0.1,0.0031622776601683772,0,0.5091086500033271
77,413,ThreeLinesControl,0.0,0.0,0.1,0.00794328234724281,1,0.45094868000160204
77,414,ThreeLinesControl_null,0.0,0.0,0.1,0.012589254117941666,1,0.4013222300018242
77,415,FarHighNarrow,0.2,0.15,0.1,0.0015848931924611121,0,0.4625444619996415
77,416,FarLowWide,0.03,0.25,0.5,0.012589254117941666,0,0.3964094960028888
77,417,Constant,0.1,0.1,0.1,0.00398107170553497,1,0.48955146099979174
77,418,ThreeLinesControl,0.0,0.0,0.1,0.0063095734448019285,0,0.367446189000475
77,419,ThreeLinesControl,0.0,0.0,0.1,0.00794328234724281,1,0.2858229930025118
77,420,FarHighWide,0.5,0.25,0.03,0.00794328234724281,1,0.39642954699957045
77,421,FarHighWide,0.5,0.25,0.03,0.0063095734448019285,0,0.42760127499786904
77,422,FarLowWide,0.03,0.25,0.5,0.015848931924611127,1,0.3616536540030211
77,423,FarHighNarrow,0.2,0.15,0.1,0.001995262314968878,0,0.5092081560032966
77,424,FarLowNarrow,0.1,0.15,0.2,0.012589254117941666,1,0.2919171989997267
77,425,FarLowWide,0.03,0.25,0.5,0.012589254117941666,0,0.35897307499908493
77,426,ThreeLinesControl,0.0,0.0,0.1,0.0063095734448019285,0,0.37307221299852245
77,427,ThreeLinesControl,0.0,0.0,0.1,0.00794328234724281,0,0.3552963610018196
77,428,FarLowWide,0.03,0.25,0.5,0.015848931924611127,1,0.3102478059990972
77,429,ThreeLinesControl,0.0,0.0,0.1,0.009999999999999995,1,0.5480014560016571
77,430,FarHighNarrow,0.2,0.15,0.1,0.002511886431509578,0,0.457865173000755
77,431,ThreeLinesControl,0.0,0.0,0.1,0.00794328234724281,0,0.4637252290012839
77,432,FarHighNarrow,0.2,0.15,0.1,0.0031622776601683772,1,0.5339817959975335
77,433,FarLowNarrow,0.1,0.15,0.2,0.009999999999999995,0,0.42701718999887817
77,434,FarLowNarrow,0.1,0.15,0.2,0.012589254117941666,0,0.36134917399976985
77,435,FarLowWide,0.03,0.25,0.5,0.012589254117941666,1,0.48717612700056634
77,436,FarLowNarrow,0.1,0.15,0.2,0.015848931924611127,1,0.39767825600210926
77,437,FarLowNarrow,0.1,0.15,0.2,0.012589254117941666,1,0.38054829699831316
77,438,FarLowWide,0.03,0.25,0.5,0.009999999999999995,0,99
77,439,FarHighWide,0.5,0.25,0.03,0.00794328234724281,1,0.33475630799875944
77,440,FarLowNarrow,0.1,0.15,0.2,0.009999999999999995,0,0.3731860349980707
77,441,ThreeLinesControl,0.0,0.0,0.1,0.009999999999999995,1,0.42714944199906313
77,442,ThreeLinesControl,0.0,0.0,0.1,0.00794328234724281,1,0.37454040100055863
77,443,FarLowNarrow,0.1,0.15,0.2,0.012589254117941666,1,0.38844474899815395
77,444,FarHighWide,0.5,0.25,0.03,0.0063095734448019285,0,0.3516997459992126
77,445,ThreeLinesControl,0.0,0.0,0.1,0.0063095734448019285,1,0.3738055309986521
77,446,FarHighNarrow,0.2,0.15,0.1,0.002511886431509578,1,0.42812572500042734
77,447,FarHighNarrow,0.2,0.15,0.1,0.001995262314968878,1,0.3299915939969651
77,448,Constant,0.1,0.1,0.1,0.0031622776601683772,0,0.5192713249998633
77,449,FarHighNarrow,0.2,0.15,0.1,0.0015848931924611121,0,0.4056012839973846
77,450,FarLowNarrow,0.1,0.15,0.2,0.009999999999999995,1,0.37957717799872626
77,451,Constant,0.1,0.1,0.1,0.00398107170553497,0,0.38588973299920326
77,452,ThreeLinesControl,0.0,0.0,0.1,0.005011872336272719,1,0.4561063369983458
77,453,Constant,0.1,0.1,0.1,0.00501187233627272,0,0.3740177399995446
77,454,FarLowNarrow,0.1,0.15,0.2,0.00794328234724281,1,0.3895417549974809
77,455,FarLowWide,0.03,0.25,0.5,0.012589254117941666,0,0.34445944300023257
77,456,FarHighNarrow,0.2,0.15,0.1,0.001995262314968878,0,0.4941473020007834
77,457,FarHighWide,0.5,0.25,0.03,0.00794328234724281,0,0.4211150330011151
77,458,ThreeLinesControl,0.0,0.0,0.1,0.00398107170553497,0,0.5357968669995898
77,459,Constant,0.1,0.1,0.1,0.006309573444801929,0,0.5740121109993197
77,460,FarLowNarrow,0.1,0.15,0.2,0.0063095734448019285,0,0.37116883199996664
77,461,FarHighNarrow,0.2,0.15,0.1,0.002511886431509578,0,0.3515032319992315
77,462,ThreeLinesControl,0.0,0.0,0.1,0.00501187233627272,0,0.4932442310018814
77,463,FarLowWide,0.03,0.25,0.5,0.015848931924611127,0,0.37051553200217313
77,464,FarLowNarrow,0.1,0.15,0.2,0.00794328234724281,0,0.36852902700047707
77,465,FarLowNarrow,0.1,0.15,0.2,0.009999999999999995,0,0.41483305799920345
77,466,FarLowWide,0.03,0.25,0.5,0.01995262314968879,1,0.37233782000112114
77,467,FarHighWide,0.5,0.25,0.03,0.009999999999999995,0,0.4190416989986261
77,468,FarLowNarrow,0.1,0.15,0.2,0.012589254117941666,1,0.4013900570025726
77,469,Constant,0.1,0.1,0.1,0.007943282347242812,1,0.4315221169999859
77,470,FarHighWide_null,0.5,0.25,0.03,0.012589254117941666,1,0.5096375560024171
77,471,FarLowWide,0.03,0.25,0.5,0.015848931924611127,0,0.4450129679971724
77,472,Constant,0.1,0.1,0.1,0.006309573444801929,0,0.4317896890024713
77,473,Constant,0.1,0.1,0.1,0.007943282347242812,1,0.4220083469990641
77,474,FarHighNarrow_null,0.2,0.15,0.1,0.07943282347242815,1,0.46507457100233296
77,475,FarLowWide,0.03,0.25,0.5,0.01995262314968879,1,0.44730046300173854
77,476,FarHighWide,0.5,0.25,0.03,0.012589254117941666,0,0.3735061590014084
77,477,FarLowNarrow,0.1,0.15,0.2,0.009999999999999995,0,0.4243980049977836
77,478,ThreeLinesControl,0.0,0.0,0.1,0.006309573444801929,0,0.3826680630008923
77,479,ThreeLinesControl,0.0,0.0,0.1,0.007943282347242812,1,0.42859998399944743
77,480,FarHighWide,0.5,0.25,0.03,0.015848931924611127,0,0.3658021439987351
77,481,ThreeLinesControl,0.0,0.0,0.1,0.006309573444801929,1,0.28301338700111955
77,482,ThreeLinesControl,0.0,0.0,0.1,0.00501187233627272,0,0.2862173060020723
77,483,FarHighWide,0.5,0.25,0.03,0.01995262314968879,0,0.33225166899865144
77,484,FarLowWide,0.03,0.25,0.5,0.015848931924611127,0,0.44974580200141645
77,485,FarHighWide,0.5,0.25,0.03,0.025118864315095794,1,0.31161726899881614
77,486,ThreeLinesControl,0.0,0.0,0.1,0.006309573444801929,0,0.3419644759997027
77,487,FarHighWide,0.5,0.25,0.03,0.01995262314968879,0,0.3640955570008373
77,488,FarHighWide,0.5,0.25,0.03,0.025118864315095794,0,0.3610101640006178
77,489,Constant,0.1,0.1,0.1,0.006309573444801929,0,0.3356407070023124
77,490,FarLowWide,0.03,0.25,0.5,0.01995262314968879,1,0.47094105500218575
77,491,Constant,0.1,0.1,0.1,0.007943282347242812,1,0.4367329820015584
77,492,ThreeLinesControl,0.0,0.0,0.1,0.007943282347242812,1,0.3536603999964427
77,493,Constant_null,0.1,0.1,0.1,0.02511886431509579,1,0.3121240540021972
77,494,ThreeLinesControl,0.0,0.0,0.1,0.006309573444801929,0,0.44479628699991736
77,495,FarHighNarrow,0.2,0.15,0.1,0.0031622776601683772,1,0.5124356169981183
77,496,ThreeLinesControl,0.0,0.0,0.1,0.007943282347242812,1,0.4542332080018241
77,497,ThreeLinesControl,0.0,0.0,0.1,0.006309573444801929,0,0.3725797599981888
77,498,FarHighNarrow,0.2,0.15,0.1,0.002511886431509578,0,0.5277587800010224
77,499,Constant_null,0.1,0.1,0.1,0.01995262314968879,1,0.42982934799874783
77,500,FarHighWide,0.5,0.25,0.03,0.031622776601683784,1,0.324010158998135
77,501,FarHighNarrow,0.2,0.15,0.1,0.0031622776601683772,0,0.6493201890007185
77,502,FarLowNarrow,0.1,0.15,0.2,0.012589254117941666,0,0.40729022300001816
77,503,ThreeLinesControl,0.0,0.0,0.1,0.007943282347242812,0,0.44439874200179474
77,504,ThreeLinesControl,0.0,0.0,0.1,0.009999999999999997,0,0.4668226239991782
77,505,FarLowWide_null,0.03,0.25,0.5,0.07943282347242815,1,0.3686423180006386
77,506,FarLowNarrow,0.1,0.15,0.2,0.015848931924611127,1,0.38443529800133547
77,507,FarHighWide,0.5,0.25,0.03,0.02511886431509579,1,0.3746194680024928
77,508,FarHighNarrow,0.2,0.15,0.1,0.00398107170553497,0,0.3257793880002282
77,509,FarHighWide,0.5,0.25,0.03,0.01995262314968879,1,0.343938286001503
77,510,Constant,0.1,0.1,0.1,0.006309573444801929,0,0.3185119250010757
77,511,FarHighNarrow_null,0.2,0.15,0.1,0.06309573444801932,1,0.37748134000139544
77,512,FarHighWide,0.5,0.25,0.03,0.015848931924611127,1,0.3119817750011862
77,513,FarLowNarrow,0.1,0.15,0.2,0.012589254117941666,0,0.38187062599899946
77,514,ThreeLinesControl,0.0,0.0,0.1,0.012589254117941668,1,0.6412644769989129
77,515,FarHighNarrow,0.2,0.15,0.1,0.00501187233627272,0,0.3752597800012154
77,516,FarHighNarrow,0.2,0.15,0.1,0.006309573444801929,0,0.44545385200035525
77,517,ThreeLinesControl,0.0,0.0,0.1,0.009999999999999997,0,0.36245665200112853
77,518,FarHighNarrow,0.2,0.15,0.1,0.007943282347242812,0,0.4394492179999361
77,519,ThreeLinesControl,0.0,0.0,0.1,0.012589254117941668,0,0.3898459449992515
77,520,Constant,0.1,0.1,0.1,0.007943282347242812,0,0.4761022079983377
77,521,ThreeLinesControl,0.0,0.0,0.1,0.01584893192461113,1,0.41034458899957826
77,522,FarLowWide,0.03,0.25,0.5,0.015848931924611127,0,0.528410047001671
77,523,FarHighWide,0.5,0.25,0.03,0.012589254117941666,1,0.431328618000407
77,524,FarHighNarrow,0.2,0.15,0.1,0.009999999999999997,1,0.4705804419972992
77,525,FarHighWide,0.5,0.25,0.03,0.009999999999999995,1,0.46692652799902135
77,526,FarHighWide,0.5,0.25,0.03,0.00794328234724281,1,0.43286230100056855
77,527,FarHighNarrow_null,0.2,0.15,0.1,0.05011872336272722,1,0.39814663600191125
77,528,ThreeLinesControl,0.0,0.0,0.1,0.012589254117941668,0,0.4253252779999457
77,529,FarHighNarrow,0.2,0.15,0.1,0.007943282347242812,0,0.46354266699927393
77,530,ThreeLinesControl,0.0,0.0,0.1,0.01584893192461113,0,0.42627511199680157
77,531,FarLowNarrow,0.1,0.15,0.2,0.015848931924611127,1,0.48053993199937395
77,532,FarHighNarrow,0.2,0.15,0.1,0.009999999999999997,1,0.35886496499733767
77,533,ThreeLinesControl,0.0,0.0,0.1,0.019952623149688792,1,0.3802015189976373
77,534,FarLowWide,0.03,0.25,0.5,0.01995262314968879,0,0.33811710000009043
77,535,FarHighNarrow,0.2,0.15,0.1,0.007943282347242812,0,0.4244843710002897
77,536,ThreeLinesControl,0.0,0.0,0.1,0.01584893192461113,1,0.33395909200044116
77,537,Constant,0.1,0.1,0.1,0.009999999999999997,0,0.37265474699961487
77,538,FarLowWide,0.03,0.25,0.5,0.025118864315095794,0,0.4100942879995273
77,539,ThreeLinesControl,0.0,0.0,0.1,0.012589254117941668,1,0.35222537300069234
77,540,FarLowWide,0.03,0.25,0.5,0.031622776601683784,1,0.3273155280003266
77,541,FarLowNarrow,0.1,0.15,0.2,0.012589254117941666,1,0.3062637229995744
77,542,FarHighNarrow,0.2,0.15,0.1,0.009999999999999997,1,0.3764193360002537
77,543,FarHighWide,0.5,0.25,0.03,0.0063095734448019285,0,0.3743627160001779
77,544,FarLowNarrow,0.1,0.15,0.2,0.009999999999999995,1,0.3774928999991971
77,545,FarHighNarrow,0.2,0.15,0.1,0.007943282347242812,1,0.34384796700032894
77,546,Constant,0.1,0.1,0.1,0.012589254117941668,1,0.3648403610022797
77,547,FarHighNarrow,0.2,0.15,0.1,0.006309573444801929,1,0.3610864729998866
77,548,FarHighWide_null,0.5,0.25,0.03,0.009999999999999995,1,0.38204425499861827
77,549,FarHighWide,0.5,0.25,0.03,0.00794328234724281,1,0.32447884300199803
77,550,FarHighNarrow,0.2,0.15,0.1,0.00501187233627272,0,0.35456482999870786
77,551,FarLowWide_null,0.03,0.25,0.5,0.06309573444801932,1,0.40861727700030315
77,552,ThreeLinesControl,0.0,0.0,0.1,0.009999999999999997,0,0.44581344700054615
77,553,FarLowWide,0.03,0.25,0.5,0.02511886431509579,1,0.3156353529993794
77,554,ThreeLinesControl,0.0,0.0,0.1,0.012589254117941668,1,0.32215452200034633
77,555,FarHighWide,0.5,0.25,0.03,0.0063095734448019285,1,0.4653569379988767
77,556,ThreeLinesControl,0.0,0.0,0.1,0.009999999999999997,1,0.3672184489987558
77,557,FarLowNarrow,0.1,0.15,0.2,0.00794328234724281,0,0.3737714170019899
77,558,ThreeLinesControl,0.0,0.0,0.1,0.007943282347242812,0,0.40947914099888294
77,559,FarLowWide,0.03,0.25,0.5,0.01995262314968879,1,0.27164920499853906
77,560,FarLowWide,0.03,0.25,0.5,0.015848931924611127,1,0.2989216629975999
77,561,FarHighNarrow,0.2,0.15,0.1,0.006309573444801929,0,0.44092546200045035
77,562,FarLowWide,0.03,0.25,0.5,0.012589254117941666,0,0.3514214919996448
77,563,Constant,0.1,0.1,0.1,0.009999999999999997,0,0.3864916170023207
77,564,FarHighNarrow,0.2,0.15,0.1,0.007943282347242812,1,0.28853616299966234
77,565,FarLowWide,0.03,0.25,0.5,0.015848931924611127,0,0.37470500800191076
77,566,FarHighNarrow,0.2,0.15,0.1,0.006309573444801929,0,0.291592101999413
77,567,FarHighWide,0.5,0.25,0.03,0.005011872336272719,1,0.2898990630019398
77,568,FarLowNarrow_null,0.1,0.15,0.2,0.031622776601683784,1,0.32040213300206233
77,569,FarLowWide,0.03,0.25,0.5,0.01995262314968879,0,0.3340901770025084
77,570,FarLowWide,0.03,0.25,0.5,0.025118864315095794,1,0.3241125849999662
77,571,Constant,0.1,0.1,0.1,0.012589254117941668,0,0.37077104200216127
77,572,ThreeLinesControl,0.0,0.0,0.1,0.009999999999999997,0,0.49699808600053075
77,573,ThreeLinesControl,0.0,0.0,0.1,0.012589254117941668,0,0.4802743370019016
77,574,ThreeLinesControl,0.0,0.0,0.1,0.01584893192461113,1,0.3161817800028075
77,575,FarHighWide,0.5,0.25,0.03,0.00398107170553497,1,0.29011702799834893
77,576,FarHighNarrow,0.2,0.15,0.1,0.007943282347242812,1,0.3563416690012673
77,577,FarLowNarrow,0.1,0.15,0.2,0.009999999999999995,1,0.36269783500029007
77,578,Constant,0.1,0.1,0.1,0.01584893192461113,1,0.31267658000069787
77,579,FarLowWide,0.03,0.25,0.5,0.01995262314968879,1,0.38777941499938606
77,580,FarLowWide,0.03,0.25,0.5,0.015848931924611127,0,0.33002196800225647
77,581,FarHighNarrow,0.2,0.15,0.1,0.006309573444801929,1,0.30405331200017827
77,582,FarLowWide,0.03,0.25,0.5,0.01995262314968879,1,0.3021034850025899
77,583,FarHighWide,0.5,0.25,0.03,0.0031622776601683772,0,0.3327984130010009
77,584,Constant,0.1,0.1,0.1,0.012589254117941668,1,0.2984194029995706
77,585,ThreeLinesControl,0.0,0.0,0.1,0.012589254117941668,1,0.440702150001016
77,586,Constant,0.1,0.1,0.1,0.009999999999999997,0,0.3828354899997066
77,587,FarLowNarrow,0.1,0.15,0.2,0.00794328234724281,0,0.49280479500157526
77,588,FarLowWide,0.03,0.25,0.5,0.015848931924611127,0,99
77,589,FarLowWide,0.03,0.25,0.5,0.01995262314968879,0,99
77,590,FarLowNarrow,0.1,0.15,0.2,0.009999999999999995,0,99
77,591,Constant,0.1,0.1,0.1,0.012589254117941668,0,99
77,592,FarHighWide_null,0.5,0.25,0.03,0.00794328234724281,0,99
77,593,FarHighWide,0.5,0.25,0.03,0.00398107170553497,0,99
77,594,FarHighNarrow,0.2,0.15,0.1,0.00501187233627272,0,99
77,595,Constant,0.1,0.1,0.1,0.01584893192461113,0,99
77,596,FarLowWide,0.03,0.25,0.5,0.025118864315095794,0,99
77,597,FarLowWide,0.03,0.25,0.5,0.031622776601683784,0,99
77,598,FarHighWide,0.5,0.25,0.03,0.00501187233627272,0,99
77,599,ThreeLinesControl,0.0,0.0,0.1,0.009999999999999997,0,99
77,600,FarHighNarrow,0.2,0.15,0.1,0.006309573444801929,0,0.40996591899966006
77,601,FarLowWide,0.03,0.25,0.5,0.03981071705534971,1,0.33192731400049524
77,602,ThreeLinesControl,0.0,0.0,0.1,0.012589254117941668,0,0.2817023050010903
77,603,FarHighNarrow,0.2,0.15,0.1,0.007943282347242812,0,0.3596091819999856
77,604,ThreeLinesControl,0.0,0.0,0.1,0.01584893192461113,1,0.3710734890009917
77,605,FarLowNarrow,0.1,0.15,0.2,0.012589254117941666,1,0.40123919799953
77,606,FarHighNarrow,0.2,0.15,0.1,0.009999999999999997,0,0.3428028650014312
77,607,ThreeLinesControl,0.0,0.0,0.1,0.012589254117941668,0,0.3556742500004475
77,608,ThreeLinesControl,0.0,0.0,0.1,0.01584893192461113,1,0.31414194500030135
77,609,ThreeLinesControl,0.0,0.0,0.1,0.012589254117941668,0,0.3358075620017189
77,610,FarHighNarrow,0.2,0.15,0.1,0.012589254117941668,0,0.47017843600042397
77,611,ThreeLinesControl,0.0,0.0,0.1,0.01584893192461113,1,0.4121976860005816
77,612,FarLowWide_null,0.03,0.25,0.5,0.05011872336272722,1,0.33713250800065
77,613,ThreeLinesControl,0.0,0.0,0.1,0.012589254117941668,0,0.39151577400116366
77,614,FarLowWide,0.03,0.25,0.5,0.031622776601683784,1,0.34152885300136404
77,615,FarLowWide,0.03,0.25,0.5,0.02511886431509579,1,0.2678576649996103
77,616,FarLowNarrow,0.1,0.15,0.2,0.009999999999999995,0,0.3127655649986991
77,617,Constant,0.1,0.1,0.1,0.019952623149688792,1,0.3290609299983771
77,618,FarLowNarrow_null,0.1,0.15,0.2,0.02511886431509579,1,0.3241242370022519
77,619,ThreeLinesControl,0.0,0.0,0.1,0.01584893192461113,1,0.33061828700010665
77,620,Constant_null,0.1,0.1,0.1,0.015848931924611127,1,0.33258949300216045
77,621,Constant,0.1,0.1,0.1,0.01584893192461113,1,0.28256297500047367
77,622,Constant,0.1,0.1,0.1,0.012589254117941668,1,0.32882884399805334
77,623,FarLowWide_null,0.03,0.25,0.5,0.03981071705534971,1,0.3017204660027346
77,624,Constant,0.1,0.1,0.1,0.009999999999999997,1,0.3228422389984189
77,625,FarHighWide_null,0.5,0.25,0.03,0.009999999999999995,1,0.44926786899668514
77,626,FarLowNarrow,0.1,0.15,0.2,0.012589254117941666,0,0.3354405450008926
77,627,Constant,0.1,0.1,0.1,0.007943282347242812,1,0.3256626709990087
77,628,ThreeLinesControl,0.0,0.0,0.1,0.012589254117941668,0,0.299561445001018
77,629,FarLowWide,0.03,0.25,0.5,0.01995262314968879,0,0.32403123599942774
77,630,FarHighNarrow,0.2,0.15,0.1,0.01584893192461113,1,0.32195251600205665
77,631,ThreeLinesControl,0.0,0.0,0.1,0.01584893192461113,0,0.42187649900006363
77,632,FarLowWide,0.03,0.25,0.5,0.025118864315095794,1,0.3253319509967696
77,633,Constant,0.1,0.1,0.1,0.006309573444801929,0,0.34727348500018707
77,634,FarHighWide,0.5,0.25,0.03,0.006309573444801929,0,0.4065732749986637
77,635,FarHighNarrow,0.2,0.15,0.1,0.012589254117941668,1,0.2847223130011116
77,636,FarLowNarrow,0.1,0.15,0.2,0.015848931924611127,1,0.23972250899896608
77,637,ThreeLinesControl,0.0,0.0,0.1,0.019952623149688792,0,0.35817026600125246
77,638,ThreeLinesControl,0.0,0.0,0.1,0.025118864315095798,0,0.5081902230012929
77,639,ThreeLinesControl,0.0,0.0,0.1,0.03162277660168379,0,0.3041351739993843
77,640,FarHighNarrow,0.2,0.15,0.1,0.009999999999999997,1,0.29426193600011175
77,641,FarLowNarrow,0.1,0.15,0.2,0.012589254117941666,0,0.2923459189987625
77,642,FarHighNarrow,0.2,0.15,0.1,0.007943282347242812,0,0.3624470389986527
77,643,FarHighWide,0.5,0.25,0.03,0.007943282347242812,1,0.3366501000018616
77,644,FarLowNarrow,0.1,0.15,0.2,0.015848931924611127,1,0.3991046209994238
77,645,FarLowNarrow,0.1,0.15,0.2,0.012589254117941666,0,0.35722639199957484
77,646,ThreeLinesControl,0.0,0.0,0.1,0.03981071705534973,1,0.32340944500174373
77,647,FarLowNarrow,0.1,0.15,0.2,0.015848931924611127,1,0.31256321299952106
77,648,FarLowNarrow,0.1,0.15,0.2,0.012589254117941666,0,0.366332155001146
77,649,ThreeLinesControl,0.0,0.0,0.1,0.03162277660168379,1,0.2367275079996034
77,650,ThreeLinesControl,0.0,0.0,0.1,0.025118864315095798,1,0.25590528499742504
77,651,FarHighNarrow,0.2,0.15,0.1,0.009999999999999997,1,0.2378083110015723
77,652,FarLowNarrow,0.1,0.15,0.2,0.015848931924611127,1,0.274427090997051
77,653,FarLowWide,0.03,0.25,0.5,0.01995262314968879,1,0.24530980799681856
77,654,Constant,0.1,0.1,0.1,0.007943282347242812,0,0.6353837569986354
77,655,ThreeLinesControl,0.0,0.0,0.1,0.019952623149688792,1,0.4726281389994256
77,656,FarLowNarrow,0.1,0.15,0.2,0.012589254117941666,0,0.3586455919976288
77,657,Constant_null,0.1,0.1,0.1,0.012589254117941666,1,0.5409178900008556
77,658,Constant,0.1,0.1,0.1,0.009999999999999997,1,0.4752022639986535
77,659,FarHighWide,0.5,0.25,0.03,0.006309573444801929,1,0.36935787399852416
77,660,FarLowNarrow,0.1,0.15,0.2,0.015848931924611127,1,0.31830308699863963
77,661,ThreeLinesControl,0.0,0.0,0.1,0.01584893192461113,0,0.3900204340025084
77,662,FarHighNarrow,0.2,0.15,0.1,0.007943282347242812,0,0.339764793003269
77,663,FarLowNarrow,0.1,0.15,0.2,0.012589254117941666,0,0.3789947449986357
77,664,FarLowNarrow,0.1,0.15,0.2,0.015848931924611127,1,0.350818552000419
77,665,FarLowNarrow,0.1,0.15,0.2,0.012589254117941666,1,0.38074082800085307
77,666,FarLowNarrow,0.1,0.15,0.2,0.009999999999999995,0,0.32819573099914123
77,667,FarHighWide,0.5,0.25,0.03,0.00501187233627272,0,0.3344425420000334
77,668,FarLowWide_null,0.03,0.25,0.5,0.031622776601683784,1,0.38087711700063664
77,669,FarHighNarrow,0.2,0.15,0.1,0.009999999999999997,1,0.5121578059988678
77,670,FarLowWide_null,0.03,0.25,0.5,0.02511886431509579,1,0.3501457659986045
77,671,FarHighWide_null,0.5,0.25,0.03,0.00794328234724281,1,0.38000323600135744
77,672,FarLowWide,0.03,0.25,0.5,0.015848931924611127,0,0.3291690519981785
77,673,FarHighWide,0.5,0.25,0.03,0.006309573444801929,0,0.4072249719974934
77,674,FarHighWide,0.5,0.25,0.03,0.007943282347242812,0,0.2843483370015747
77,675,FarHighWide,0.5,0.25,0.03,0.009999999999999997,0,0.4027074679979705
77,676,FarHighNarrow,0.2,0.15,0.1,0.007943282347242812,0,0.3125561499982723
77,677,FarLowNarrow,0.1,0.15,0.2,0.012589254117941666,1,0.30409698999937973
77,678,FarHighNarrow,0.2,0.15,0.1,0.009999999999999997,1,0.3345387989975279
77,679,FarHighNarrow,0.2,0.15,0.1,0.007943282347242812,0,0.3163985249993857
77,680,FarLowWide,0.03,0.25,0.5,0.01995262314968879,1,0.3614951960007602
77,681,FarLowWide,0.03,0.25,0.5,0.015848931924611127,0,0.294395622000593
77,682,FarHighWide_null,0.5,0.25,0.03,0.0063095734448019285,1,0.3468920090017491
77,683,FarHighNarrow,0.2,0.15,0.1,0.009999999999999997,1,0.280664201000036
77,684,ThreeLinesControl,0.0,0.0,0.1,0.019952623149688792,1,0.32598300099925837
77,685,FarLowNarrow,0.1,0.15,0.2,0.009999999999999995,1,0.3368958009996277
77,686,Constant,0.1,0.1,0.1,0.007943282347242812,1,0.3111812219976855
77,687,ThreeLinesControl,0.0,0.0,0.1,0.01584893192461113,1,0.27744017200166127
77,688,FarHighWide,0.5,0.25,0.03,0.012589254117941668,1,0.41055639299884206
77,689,FarLowNarrow,0.1,0.15,0.2,0.00794328234724281,1,0.2725231980002718
77,690,FarLowNarrow,0.1,0.15,0.2,0.0063095734448019285,1,0.29480709099880187
77,691,FarLowNarrow_null,0.1,0.15,0.2,0.01995262314968879,1,0.3410787930006336
77,692,FarHighNarrow,0.2,0.15,0.1,0.007943282347242812,0,0.28308486500100116
77,693,FarLowWide,0.03,0.25,0.5,0.01995262314968879,1,0.29788569299853407
77,694,ThreeLinesControl,0.0,0.0,0.1,0.012589254117941668,0,0.3917974200012395
77,695,ThreeLinesControl,0.0,0.0,0.1,0.01584893192461113,1,0.3187311490000866
77,696,Constant,0.1,0.1,0.1,0.006309573444801929,1,0.34968507600206067
77,697,FarHighWide,0.5,0.25,0.03,0.009999999999999997,0,0.33669662999818684
77,698,FarHighWide,0.5,0.25,0.03,0.012589254117941668,0,0.33513068899992504
77,699,FarLowWide,0.03,0.25,0.5,0.015848931924611127,1,0.2982293019995268
77,700,Constant,0.1,0.1,0.1,0.00501187233627272,0,0.5363708999975643
77,701,FarHighNarrow,0.2,0.15,0.1,0.009999999999999997,1,0.2992914890019165
77,702,FarLowWide,0.03,0.25,0.5,0.012589254117941666,1,0.36950790300033987
77,703,FarLowWide,0.03,0.25,0.5,0.009999999999999995,0,0.3917562540009385
77,704,FarLowNarrow,0.1,0.15,0.2,0.005011872336272719,1,0.2860168449988123
77,705,FarHighNarrow,0.2,0.15,0.1,0.007943282347242812,1,0.30812915499700466
77,706,ThreeLinesControl,0.0,0.0,0.1,0.012589254117941668,0,0.35310534599921084
77,707,FarHighNarrow,0.2,0.15,0.1,0.006309573444801929,0,0.5435594150003453
77,708,ThreeLinesControl,0.0,0.0,0.1,0.01584893192461113,1,0.3494587320019491
77,709,FarLowNarrow,0.1,0.15,0.2,0.00398107170553497,0,0.40255136099949596
77,710,FarLowWide,0.03,0.25,0.5,0.012589254117941666,0,0.3860698179996689
77,711,FarLowNarrow,0.1,0.15,0.2,0.00501187233627272,0,0.5282585179993475
77,712,ThreeLinesControl,0.0,0.0,0.1,0.012589254117941668,1,0.4522568639986275
77,713,FarLowWide,0.03,0.25,0.5,0.015848931924611127,1,0.40200723499947344
77,714,FarLowNarrow,0.1,0.15,0.2,0.006309573444801929,0,0.31920704200092587
77,715,ThreeLinesControl,0.0,0.0,0.1,0.009999999999999997,0,0.4033348900011333
77,716,Constant,0.1,0.1,0.1,0.006309573444801929,1,0.3045108309997886
77,717,Constant,0.1,0.1,0.1,0.00501187233627272,0,0.462915296000574
77,718,FarHighWide,0.5,0.25,0.03,0.01584893192461113,0,0.4101982380016125
77,719,FarHighNarrow_null,0.2,0.15,0.1,0.03981071705534971,1,0.5751709409996693
77,720,FarHighWide,0.5,0.25,0.03,0.019952623149688792,1,0.5395262919992092
77,721,FarLowNarrow,0.1,0.15,0.2,0.007943282347242812,0,0.3454227090005588
77,722,ThreeLinesControl,0.0,0.0,0.1,0.012589254117941668,0,0.4319196640026348
77,723,FarHighWide,0.5,0.25,0.03,0.01584893192461113,1,0.2937050700020336
77,724,ThreeLinesControl,0.0,0.0,0.1,0.01584893192461113,1,0.3468812960018113
77,725,FarHighNarrow,0.2,0.15,0.1,0.007943282347242812,0,0.4012213130008604
77,726,ThreeLinesControl,0.0,0.0,0.1,0.012589254117941668,0,0.3990819719983847
77,727,FarHighNarrow,0.2,0.15,0.1,0.009999999999999997,1,0.32533099699867307
77,728,FarHighWide,0.5,0.25,0.03,0.012589254117941668,0,0.3317406449968985
77,729,Constant,0.1,0.1,0.1,0.006309573444801929,0,0.38704521199906594
77,730,Constant,0.1,0.1,0.1,0.007943282347242812,1,0.2888710080005694
77,731,FarHighWide,0.5,0.25,0.03,0.01584893192461113,1,0.2840828849984973
77,732,FarLowWide,0.03,0.25,0.5,0.012589254117941666,0,0.30707459800032666
77,733,ThreeLinesControl,0.0,0.0,0.1,0.01584893192461113,1,0.5022754860001442
77,734,FarHighNarrow,0.2,0.15,0.1,0.007943282347242812,0,0.4594805529995938
77,735,FarHighNarrow,0.2,0.15,0.1,0.009999999999999997,1,0.33760507899933145
77,736,ThreeLinesControl_null,0.0,0.0,0.1,0.009999999999999995,1,0.34986532800030545
77,737,FarLowWide,0.03,0.25,0.5,0.015848931924611127,1,0.5069951330006006
77,738,FarHighWide,0.5,0.25,0.03,0.012589254117941668,1,0.35277135000069393
77,739,FarHighWide,0.5,0.25,0.03,0.009999999999999997,0,0.3672983060023398
77,740,FarLowWide,0.03,0.25,0.5,0.012589254117941666,1,0.3334334579994902
77,741,FarHighWide,0.5,0.25,0.03,0.012589254117941668,1,0.5075706560019171
77,742,FarLowNarrow,0.1,0.15,0.2,0.009999999999999997,1,0.4015667839994421
77,743,Constant,0.1,0.1,0.1,0.006309573444801929,0,0.36780558100144845
77,744,Constant,0.1,0.1,0.1,0.007943282347242812,1,0.3423239139992802
77,745,FarLowWide,0.03,0.25,0.5,0.009999999999999995,0,0.372346757001651
77,746,FarHighWide,0.5,0.25,0.03,0.009999999999999997,1,0.40369266900233924
77,747,FarLowWide,0.03,0.25,0.5,0.012589254117941666,0,0.34368887999880826
77,748,FarHighNarrow,0.2,0.15,0.1,0.007943282347242812,1,0.30055023100067046
77,749,Constant,0.1,0.1,0.1,0.006309573444801929,1,0.2795035529998131
77,750,FarLowNarrow,0.1,0.15,0.2,0.007943282347242812,0,0.38986564699735027
77,751,ThreeLinesControl,0.0,0.0,0.1,0.012589254117941668,1,0.3477757670007122
77,752,ThreeLinesControl,0.0,0.0,0.1,0.009999999999999997,1,0.30306888799896115
77,753,FarHighWide,0.5,0.25,0.03,0.007943282347242812,0,0.533173732997966
77,754,FarHighNarrow,0.2,0.15,0.1,0.006309573444801929,1,0.32327336000162177
77,755,FarHighWide,0.5,0.25,0.03,0.009999999999999997,0,0.44170065999787766
77,756,FarHighWide,0.5,0.25,0.03,0.012589254117941668,1,0.4076232280021941
77,757,Constant,0.1,0.1,0.1,0.00501187233627272,1,0.38192281699957675
77,758,Constant,0.1,0.1,0.1,0.00398107170553497,0,0.4191194519989949
77,759,FarLowWide,0.03,0.25,0.5,0.015848931924611127,0,0.39300546999947983
77,760,FarLowNarrow,0.1,0.15,0.2,0.009999999999999997,1,0.3275994309988164
77,761,FarLowWide,0.03,0.25,0.5,0.01995262314968879,1,0.3895835149996856
77,762,FarLowWide,0.03,0.25,0.5,0.015848931924611127,0,0.36495841100258986
77,763,Constant,0.1,0.1,0.1,0.00501187233627272,1,0.4717076550005004
77,764,ThreeLinesControl,0.0,0.0,0.1,0.007943282347242812,0,0.3489803619995655
77,765,FarHighWide,0.5,0.25,0.03,0.009999999999999997,0,0.411969685999793
77,766,FarLowNarrow,0.1,0.15,0.2,0.007943282347242812,1,0.47016687999712303
77,767,ThreeLinesControl,0.0,0.0,0.1,0.009999999999999997,1,0.388665865000803
77,768,Constant,0.1,0.1,0.1,0.00398107170553497,0,0.3365332959983789
77,769,FarLowNarrow,0.1,0.15,0.2,0.006309573444801929,0,0.3335476739994192
77,770,FarLowWide,0.03,0.25,0.5,0.01995262314968879,1,0.45170440500078257
77,771,FarLowNarrow,0.1,0.15,0.2,0.007943282347242812,1,0.4100335779985471
77,772,FarHighNarrow,0.2,0.15,0.1,0.00501187233627272,0,0.4959233689987741
77,773,ThreeLinesControl_null,0.0,0.0,0.1,0.00794328234724281,1,0.5103336220017809
77,774,FarLowWide,0.03,0.25,0.5,0.015848931924611127,1,0.5005548419976549
77,775,Constant_null,0.1,0.1,0.1,0.009999999999999995,1,0.4665640450002684
77,776,Constant,0.1,0.1,0.1,0.00501187233627272,1,0.447996676000912
77,777,Constant,0.1,0.1,0.1,0.00398107170553497,1,0.3741313730024558
77,778,FarHighWide,0.5,0.25,0.03,0.012589254117941668,0,0.46915407400229014
77,779,FarLowWide,0.03,0.25,0.5,0.012589254117941666,0,0.4323202820014558
77,780,Constant,0.1,0.1,0.1,0.0031622776601683772,1,0.3425646969990339
77,781,FarHighWide,0.5,0.25,0.03,0.01584893192461113,1,0.37228225600119913
77,782,FarHighWide,0.5,0.25,0.03,0.012589254117941668,0,0.42379981100020814
77,783,FarHighWide,0.5,0.25,0.03,0.01584893192461113,1,0.37390141599826165
77,784,ThreeLinesControl,0.0,0.0,0.1,0.007943282347242812,0,0.490565374999278
77,785,FarLowNarrow,0.1,0.15,0.2,0.006309573444801929,1,0.35109286599981715
77,786,FarHighNarrow,0.2,0.15,0.1,0.006309573444801929,1,0.41321020900068106
77,787,FarLowNarrow,0.1,0.15,0.2,0.00501187233627272,0,0.5144105760009552
77,788,FarLowWide,0.03,0.25,0.5,0.015848931924611127,1,0.3204483910012641
77,789,Constant,0.1,0.1,0.1,0.002511886431509578,0,0.3262936049977725
77,790,FarHighNarrow,0.2,0.15,0.1,0.00501187233627272,1,0.34096507399954135
77,791,Constant,0.1,0.1,0.1,0.0031622776601683772,0,0.306935272001283
77,792,FarLowNarrow,0.1,0.15,0.2,0.006309573444801929,0,0.4011317730000883
77,793,FarHighWide,0.5,0.25,0.03,0.012589254117941668,1,0.3181490239985578
77,794,Constant,0.1,0.1,0.1,0.00398107170553497,0,0.4444498709999607
77,795,FarHighNarrow,0.2,0.15,0.1,0.00398107170553497,0,0.36046951200114563
77,796,Constant,0.1,0.1,0.1,0.00501187233627272,0,0.3986620750001748
77,797,FarHighWide,0.5,0.25,0.03,0.009999999999999997,1,0.42079128800105536
77,798,FarHighNarrow_null,0.2,0.15,0.1,0.031622776601683784,1,0.3840531050009304
77,799,FarLowWide,0.03,0.25,0.5,0.012589254117941666,0,0.4619949080006336
77,800,FarHighNarrow,0.2,0.15,0.1,0.00501187233627272,0,0.4030208330004825
77,801,Constant,0.1,0.1,0.1,0.006309573444801929,1,0.4002604630004498
77,802,FarHighWide,0.5,0.25,0.03,0.007943282347242812,1,0.47868803599703824
77,803,Constant,0.1,0.1,0.1,0.00501187233627272,1,0.3956097549998958
77,804,FarLowNarrow,0.1,0.15,0.2,0.007943282347242812,0,0.3458856270008255
77,805,Constant,0.1,0.1,0.1,0.00398107170553497,1,0.39209214100264944
77,806,FarLowNarrow_null,0.1,0.15,0.2,0.015848931924611127,1,0.3741615750004712
77,807,ThreeLinesControl_null,0.0,0.0,0.1,0.0063095734448019285,1,0.42841862000204856
77,808,ThreeLinesControl,0.0,0.0,0.1,0.009999999999999997,1,0.46646962700106087
77,809,Constant,0.1,0.1,0.1,0.0031622776601683772,0,0.4712858789971506
77,810,FarHighNarrow,0.2,0.15,0.1,0.006309573444801929,1,0.5500404480008001
77,811,FarHighWide,0.5,0.25,0.03,0.006309573444801929,1,0.45225734599807765
77,812,FarLowNarrow,0.1,0.15,0.2,0.009999999999999997,0,0.36719066400110023
77,813,FarLowNarrow,0.1,0.15,0.2,0.012589254117941668,1,0.35730233899812447
77,814,FarHighWide,0.5,0.25,0.03,0.00501187233627272,1,0.4884595140028978
77,815,Constant,0.1,0.1,0.1,0.00398107170553497,0,0.358495006999874
77,816,Constant,0.1,0.1,0.1,0.00501187233627272,0,0.4837355290001142
77,817,FarHighNarrow,0.2,0.15,0.1,0.00501187233627272,0,0.40851509799904306
77,818,FarLowWide,0.03,0.25,0.5,0.015848931924611127,1,0.3189113570006157
77,819,FarLowNarrow,0.1,0.15,0.2,0.009999999999999997,1,0.30925594300060766
77,820,ThreeLinesControl,0.0,0.0,0.1,0.007943282347242812,0,0.33919065599911846
77,821,Constant,0.1,0.1,0.1,0.006309573444801929,1,0.35244722299830755
77,822,FarLowNarrow,0.1,0.15,0.2,0.007943282347242812,1,0.3663607639973634
77,823,FarLowNarrow,0.1,0.15,0.2,0.006309573444801929,0,0.4048659520012734
77,824,FarHighWide,0.5,0.25,0.03,0.00398107170553497,1,0.3948979779997899
77,825,FarHighWide,0.5,0.25,0.03,0.0031622776601683772,1,0.3589581630003522
77,826,FarLowNarrow,0.1,0.15,0.2,0.007943282347242812,1,0.4128616380003223
77,827,Constant_null,0.1,0.1,0.1,0.00794328234724281,1,0.4193356629984919
77,828,FarHighWide,0.5,0.25,0.03,0.002511886431509578,0,0.5182471629996144
77,829,FarLowNarrow,0.1,0.15,0.2,0.006309573444801929,0,0.5167805249984667
77,830,FarHighWide_null,0.5,0.25,0.03,0.005011872336272719,1,0.4266815979972307
77,831,ThreeLinesControl_null,0.0,0.0,0.1,0.005011872336272719,1,0.41408742900239304
77,832,FarHighNarrow,0.2,0.15,0.1,0.006309573444801929,1,0.3960222040004737
77,833,FarHighNarrow,0.2,0.15,0.1,0.00501187233627272,1,0.42548470700057806
77,834,FarHighWide,0.5,0.25,0.03,0.0031622776601683772,0,0.5032675580005161
77,835,FarHighNarrow_null,0.2,0.15,0.1,0.02511886431509579,0,0.34847377800178947
77,836,ThreeLinesControl,0.0,0.0,0.1,0.009999999999999997,1,0.3706796149999718
77,837,FarLowNarrow_null,0.1,0.15,0.2,0.012589254117941666,0,0.44880138599910424
77,838,FarLowWide,0.03,0.25,0.5,0.012589254117941666,0,0.4230787070009683
77,839,FarHighWide_null,0.5,0.25,0.03,0.00398107170553497,1,0.5429456980018585
77,840,FarLowWide,0.03,0.25,0.5,0.015848931924611127,0,0.48976927600233466
77,841,FarLowNarrow,0.1,0.15,0.2,0.007943282347242812,0,0.4476005479991727
77,842,FarLowWide,0.03,0.25,0.5,0.01995262314968879,0,0.35892292599965003
77,843,FarLowWide,0.03,0.25,0.5,0.025118864315095794,1,0.3949828719996731
77,844,FarLowWide,0.03,0.25,0.5,0.01995262314968879,0,0.4249584800018056
77,845,FarHighNarrow,0.2,0.15,0.1,0.00398107170553497,0,0.3483614700016915
77,846,Constant_null,0.1,0.1,0.1,0.0063095734448019285,1,0.36229604199979804
77,847,FarHighNarrow,0.2,0.15,0.1,0.00501187233627272,0,0.36858485599805135
77,848,FarLowWide,0.03,0.25,0.5,0.025118864315095794,1,0.38767919599922607
77,849,FarLowWide,0.03,0.25,0.5,0.01995262314968879,1,0.3540322250009922
77,850,FarLowNarrow,0.1,0.15,0.2,0.009999999999999997,1,0.47981594200246036
77,851,FarHighWide,0.5,0.25,0.03,0.00398107170553497,0,0.39625780600181315
77,852,FarLowNarrow,0.1,0.15,0.2,0.007943282347242812,1,0.3871001299994532
77,853,Constant,0.1,0.1,0.1,0.00501187233627272,0,0.3683864810009254
77,854,FarHighWide,0.5,0.25,0.03,0.00501187233627272,0,0.3663775850000093
77,855,FarLowNarrow,0.1,0.15,0.2,0.006309573444801929,0,0.4047614730006899
77,856,FarLowWide,0.03,0.25,0.5,0.015848931924611127,1,0.4279660239990335
77,857,Constant,0.1,0.1,0.1,0.006309573444801929,1,0.4581654469984642
77,858,ThreeLinesControl,0.0,0.0,0.1,0.007943282347242812,0,0.34518977100015036
77,859,FarHighWide_null,0.5,0.25,0.03,0.0031622776601683772,1,0.4523457950017473
77,860,FarHighNarrow,0.2,0.15,0.1,0.006309573444801929,1,0.4183392089980771
77,861,FarLowNarrow,0.1,0.15,0.2,0.007943282347242812,1,0.4084905669988075
77,862,FarLowWide,0.03,0.25,0.5,0.012589254117941666,0,0.34762857100213296
77,863,Constant,0.1,0.1,0.1,0.00501187233627272,1,0.33769990900327684
77,864,Constant,0.1,0.1,0.1,0.00398107170553497,0,0.5007273940027517
77,865,Constant,0.1,0.1,0.1,0.00501187233627272,0,0.5232781830018212
77,866,Constant,0.1,0.1,0.1,0.006309573444801929,0,0.39293734099919675
77,867,FarLowWide,0.03,0.25,0.5,0.015848931924611127,1,0.35045835400160286
77,868,FarHighNarrow,0.2,0.15,0.1,0.00501187233627272,0,0.4445033930023783
77,869,Constant,0.1,0.1,0.1,0.007943282347242812,0,0.3625299190025544
77,870,FarHighNarrow_null,0.2,0.15,0.1,0.031622776601683784,0,0.36099651000040467
77,871,FarLowNarrow,0.1,0.15,0.2,0.006309573444801929,0,0.4071376749998308
77,872,ThreeLinesControl,0.0,0.0,0.1,0.009999999999999997,0,0.3892729319995851
77,873,ThreeLinesControl,0.0,0.0,0.1,0.012589254117941668,0,0.33969146899835323
77,874,ThreeLinesControl,0.0,0.0,0.1,0.01584893192461113,1,0.3707288210025581
77,875,FarLowWide,0.03,0.25,0.5,0.012589254117941666,1,0.349455517000024
77,876,FarLowNarrow,0.1,0.15,0.2,0.007943282347242812,0,0.3316093719986384
77,877,FarLowWide,0.03,0.25,0.5,0.009999999999999995,1,0.3137706410016108
77,878,Constant,0.1,0.1,0.1,0.009999999999999997,1,0.29332462300226325
77,879,FarHighNarrow,0.2,0.15,0.1,0.006309573444801929,1,0.45913952300179517
77,880,Constant,0.1,0.1,0.1,0.007943282347242812,1,0.303058894998685
77,881,Constant,0.1,0.1,0.1,0.006309573444801929,1,0.33049580000079004
77,882,FarLowWide,0.03,0.25,0.5,0.00794328234724281,0,0.36856039200210944
77,883,FarHighNarrow,0.2,0.15,0.1,0.00501187233627272,1,0.32672544900196954
77,884,FarLowNarrow,0.1,0.15,0.2,0.009999999999999997,0,0.532329927002138
77,885,FarLowWide,0.03,0.25,0.5,0.009999999999999995,1,0.46694280700103263
77,886,FarLowWide,0.03,0.25,0.5,0.00794328234724281,0,0.4014102510009252
77,887,FarLowNarrow,0.1,0.15,0.2,0.012589254117941668,1,0.35035875600078725
77,888,ThreeLinesControl,0.0,0.0,0.1,0.012589254117941668,1,0.4203144989987777
77,889,ThreeLinesControl,0.0,0.0,0.1,0.009999999999999997,0,0.3789899030016386
77,890,FarLowWide,0.03,0.25,0.5,0.009999999999999995,1,0.298206649000349
77,891,FarLowNarrow,0.1,0.15,0.2,0.009999999999999997,1,0.2962821110013465
77,892,ThreeLinesControl_null,0.0,0.0,0.1,0.00398107170553497,1,0.3483511800004635
77,893,FarLowNarrow,0.1,0.15,0.2,0.007943282347242812,1,0.34639415700075915
77,894,FarHighNarrow,0.2,0.15,0.1,0.00398107170553497,1,0.32570466000106535
77,895,FarHighNarrow,0.2,0.15,0.1,0.0031622776601683772,1,0.34878829999797745
77,896,FarLowWide,0.03,0.25,0.5,0.00794328234724281,0,0.3776994330000889
77,897,FarHighWide,0.5,0.25,0.03,0.006309573444801929,0,0.5007786520000082
77,898,FarLowNarrow,0.1,0.15,0.2,0.006309573444801929,1,0.41116990400041686
77,899,FarHighWide,0.5,0.25,0.03,0.007943282347242812,0,0.440090082000097
77,900,FarHighNarrow,0.2,0.15,0.1,0.002511886431509578,0,0.4141445029999886
77,901,FarHighWide,0.5,0.25,0.03,0.009999999999999997,1,0.5163592280005105
77,902,FarLowNarrow,0.1,0.15,0.2,0.00501187233627272,0,0.37854206599877216
77,903,FarLowWide,0.03,0.25,0.5,0.009999999999999995,0,0.3607957380008884
77,904,FarLowNarrow,0.1,0.15,0.2,0.006309573444801929,0,0.3831969819984806
77,905,FarHighNarrow,0.2,0.15,0.1,0.0031622776601683772,1,0.3494770699981018
77,906,FarLowWide,0.03,0.25,0.5,0.012589254117941666,1,0.31542477200127905
77,907,FarLowNarrow,0.1,0.15,0.2,0.007943282347242812,0,0.45056038099937723
77,908,ThreeLinesControl,0.0,0.0,0.1,0.012589254117941668,1,0.30242341900157044
77,909,ThreeLinesControl,0.0,0.0,0.1,0.009999999999999997,0,0.44392345500091324
77,910,ThreeLinesControl,0.0,0.0,0.1,0.012589254117941668,1,0.3746598720026668
77,911,ThreeLinesControl,0.0,0.0,0.1,0.009999999999999997,1,0.34910563999801525
77,912,Constant,0.1,0.1,0.1,0.00501187233627272,0,0.3308418830019946
77,913,FarLowNarrow_null,0.1,0.15,0.2,0.015848931924611127,1,0.43034961400189786
77,914,FarHighNarrow,0.2,0.15,0.1,0.002511886431509578,0,0.38043702200229745
77,915,FarHighWide,0.5,0.25,0.03,0.007943282347242812,1,0.33853039300083765
77,916,ThreeLinesControl_null,0.0,0.0,0.1,0.0031622776601683772,1,0.4245156200013298
77,917,FarHighNarrow,0.2,0.15,0.1,0.0031622776601683772,0,0.35872741599814617
77,918,ThreeLinesControl,0.0,0.0,0.1,0.007943282347242812,0,0.3809883299982175
77,919,FarLowNarrow,0.1,0.15,0.2,0.009999999999999997,0,0.30710144299882813
77,920,FarHighNarrow,0.2,0.15,0.1,0.00398107170553497,1,0.3284781780021149
77,921,ThreeLinesControl,0.0,0.0,0.1,0.009999999999999997,0,0.3997426949972578
77,922,ThreeLinesControl_null,0.0,0.0,0.1,0.002511886431509578,1,0.36602260699874023
77,923,FarHighNarrow,0.2,0.15,0.1,0.0031622776601683772,0,0.39723837400015327
77,924,FarHighNarrow,0.2,0.15,0.1,0.00398107170553497,1,0.42394943600083934
77,925,FarHighWide_null,0.5,0.25,0.03,0.002511886431509578,1,0.33413782799834735
77,926,FarHighWide,0.5,0.25,0.03,0.006309573444801929,0,0.37921133899726556
77,927,FarHighWide,0.5,0.25,0.03,0.007943282347242812,1,0.6315502659999765
77,928,FarHighWide,0.5,0.25,0.03,0.006309573444801929,0,0.42141148800146766
77,929,FarHighNarrow,0.2,0.15,0.1,0.0031622776601683772,0,0.5043994520019623
77,930,FarLowWide,0.03,0.25,0.5,0.009999999999999995,0,0.3506308930009254
77,931,FarHighNarrow,0.2,0.15,0.1,0.00398107170553497,0,0.44423354199898313
77,932,FarLowNarrow,0.1,0.15,0.2,0.012589254117941668,0,0.48329226699934225
77,933,FarHighNarrow,0.2,0.15,0.1,0.00501187233627272,0,0.48118857400186243
77,934,FarHighNarrow,0.2,0.15,0.1,0.006309573444801929,0,0.3746455139989848
77,935,FarLowNarrow_null,0.1,0.15,0.2,0.012589254117941666,1,0.5324400089994015
77,936,FarLowNarrow,0.1,0.15,0.2,0.01584893192461113,0,0.3468211360013811
77,937,ThreeLinesControl,0.0,0.0,0.1,0.012589254117941668,0,0.5521483980010089
77,938,FarLowNarrow,0.1,0.15,0.2,0.019952623149688792,1,0.3739793519998784
77,939,ThreeLinesControl,0.0,0.0,0.1,0.01584893192461113,1,0.3483083120008814
77,940,FarHighNarrow,0.2,0.15,0.1,0.007943282347242812,1,0.3113398599998618
77,941,FarLowNarrow,0.1,0.15,0.2,0.01584893192461113,1,0.4522725149981852
77,942,FarLowNarrow,0.1,0.15,0.2,0.012589254117941668,0,0.4103004600001441
77,943,FarLowWide,0.03,0.25,0.5,0.012589254117941666,1,0.39782101700257044
77,944,FarLowWide,0.03,0.25,0.5,0.009999999999999995,0,0.4037939079971693
77,945,Constant,0.1,0.1,0.1,0.006309573444801929,1,0.40975613000045996
77,946,FarLowNarrow_null,0.1,0.15,0.2,0.009999999999999995,1,0.40611868199994205
77,947,Constant,0.1,0.1,0.1,0.00501187233627272,1,0.4364740349992644
77,948,FarLowNarrow,0.1,0.15,0.2,0.01584893192461113,1,0.4743266359982954
77,949,ThreeLinesControl,0.0,0.0,0.1,0.012589254117941668,0,0.41565222600183915
77,950,FarHighNarrow,0.2,0.15,0.1,0.006309573444801929,0,0.46152444000108517
77,951,FarHighNarrow,0.2,0.15,0.1,0.007943282347242812,0,0.5240353180015518
77,952,FarHighNarrow,0.2,0.15,0.1,0.009999999999999997,1,0.3542736830022477
77,953,FarHighWide,0.5,0.25,0.03,0.007943282347242812,0,0.3762140190010541
77,954,FarLowWide,0.03,0.25,0.5,0.012589254117941666,0,0.397528854002303
77,955,FarHighNarrow,0.2,0.15,0.1,0.007943282347242812,0,0.5479711999978463
77,956,ThreeLinesControl,0.0,0.0,0.1,0.01584893192461113,1,0.3117411630009883
77,957,FarLowWide,0.03,0.25,0.5,0.015848931924611127,1,0.3019924699983676
77,958,ThreeLinesControl,0.0,0.0,0.1,0.012589254117941668,1,0.3468309749987384
77,959,ThreeLinesControl,0.0,0.0,0.1,0.009999999999999997,0,0.3903984720018343
77,960,FarLowWide,0.03,0.25,0.5,0.012589254117941666,0,0.37981089200184215
77,961,ThreeLinesControl,0.0,0.0,0.1,0.012589254117941668,0,0.3140604610016453
77,962,FarLowNarrow,0.1,0.15,0.2,0.012589254117941668,0,0.31193149099999573
77,963,FarLowNarrow_null,0.1,0.15,0.2,0.00794328234724281,1,0.31856277900078567
77,964,ThreeLinesControl,0.0,0.0,0.1,0.01584893192461113,0,0.33198626000012155
77,965,FarHighNarrow_null,0.2,0.15,0.1,0.03981071705534971,1,0.3354867890011519
77,966,Constant,0.1,0.1,0.1,0.00398107170553497,0,0.3175286639998376
77,967,Constant,0.1,0.1,0.1,0.00501187233627272,1,0.3879897480001091
77,968,ThreeLinesControl,0.0,0.0,0.1,0.019952623149688792,0,0.33490747199903126
77,969,FarLowWide,0.03,0.25,0.5,0.015848931924611127,0,0.33318068199878326
77,970,FarLowNarrow,0.1,0.15,0.2,0.01584893192461113,0,0.3952333580018603
77,971,FarLowWide,0.03,0.25,0.5,0.01995262314968879,1,0.27160319999893545
77,972,Constant,0.1,0.1,0.1,0.00398107170553497,0,0.35749655600011465
77,973,FarHighWide,0.5,0.25,0.03,0.009999999999999997,1,0.35581188699870836
77,974,FarLowNarrow,0.1,0.15,0.2,0.019952623149688792,1,0.2897779619997891
77,975,Constant,0.1,0.1,0.1,0.00501187233627272,0,0.4547675750000053
77,976,FarLowNarrow,0.1,0.15,0.2,0.01584893192461113,1,0.26932471400141367
77,977,FarHighWide,0.5,0.25,0.03,0.007943282347242812,1,0.2994070439999632
77,978,FarHighWide,0.5,0.25,0.03,0.006309573444801929,1,0.3693355200011865
77,979,FarHighNarrow_null,0.2,0.15,0.1,0.031622776601683784,0,0.31862299500062363
77,980,FarHighWide,0.5,0.25,0.03,0.00501187233627272,0,0.4605322729985346
77,981,ThreeLinesControl,0.0,0.0,0.1,0.025118864315095798,0,0.32295937800154206
77,982,FarLowNarrow,0.1,0.15,0.2,0.012589254117941668,1,0.2701023150002584
77,983,Constant,0.1,0.1,0.1,0.006309573444801929,0,0.35636850300215883
77,984,ThreeLinesControl,0.0,0.0,0.1,0.03162277660168379,1,0.2634828509981162
77,985,ThreeLinesControl,0.0,0.0,0.1,0.025118864315095798,1,0.27752962799786474
77,986,FarLowNarrow,0.1,0.15,0.2,0.009999999999999997,1,0.3315555700028199
77,987,FarLowWide,0.03,0.25,0.5,0.015848931924611127,0,0.32790894599747844
77,988,FarLowNarrow,0.1,0.15,0.2,0.007943282347242812,1,0.2857319180002378
77,989,FarLowWide,0.03,0.25,0.5,0.01995262314968879,1,0.30827808999674744
77,990,FarHighWide,0.5,0.25,0.03,0.006309573444801929,0,0.3141688619980414
77,991,FarLowNarrow,0.1,0.15,0.2,0.006309573444801929,0,0.37656163400242804
77,992,FarHighWide,0.5,0.25,0.03,0.007943282347242812,1,0.3267289539980993
77,993,FarHighNarrow,0.2,0.15,0.1,0.009999999999999997,1,0.46144803700008197
77,994,FarHighNarrow_null,0.2,0.15,0.1,0.03981071705534971,1,0.4979276390004088
77,995,Constant,0.1,0.1,0.1,0.007943282347242812,1,0.3659159390008426
77,996,FarLowNarrow,0.1,0.15,0.2,0.007943282347242812,0,0.4042797360016266
77,997,ThreeLinesControl_null,0.0,0.0,0.1,0.001995262314968878,1,0.3625375739975425
77,998,ThreeLinesControl,0.0,0.0,0.1,0.019952623149688792,0,0.525529259997711
77,999,FarLowWide,0.03,0.25,0.5,0.015848931924611127,1,0.33045261700317496
77,1000,FarHighNarrow_null,0.2,0.15,0.1,0.031622776601683784,0,0.3850222559995018
77,1001,FarLowWide,0.03,0.25,0.5,0.012589254117941666,0,0.3247790839996014
77,1002,FarHighNarrow,0.2,0.15,0.1,0.007943282347242812,0,0.38612744200145244
77,1003,FarLowWide,0.03,0.25,0.5,0.015848931924611127,1,0.5513290840026457
77,1004,FarHighWide,0.5,0.25,0.03,0.006309573444801929,1,0.5813494630019704
77,1005,FarLowNarrow,0.1,0.15,0.2,0.009999999999999997,1,0.5074924840009771
77,1006,FarLowWide,0.03,0.25,0.5,0.012589254117941666,0,0.4736729309988732
77,1007,FarLowNarrow,0.1,0.15,0.2,0.007943282347242812,0,0.5279408339993097
77,1008,FarLowNarrow,0.1,0.15,0.2,0.009999999999999997,0,0.5170973700005561
77,1009,FarLowWide,0.03,0.25,0.5,0.015848931924611127,1,0.46030492700083414
77,1010,FarHighNarrow,0.2,0.15,0.1,0.009999999999999997,1,0.3222822490024555
77,1011,Constant,0.1,0.1,0.1,0.006309573444801929,0,0.4312709520017961
77,1012,FarLowNarrow,0.1,0.15,0.2,0.012589254117941668,0,99
77,1013,FarLowNarrow,0.1,0.15,0.2,0.01584893192461113,1,0.3705121870007133
77,1014,FarHighNarrow,0.2,0.15,0.1,0.007943282347242812,1,0.3657698139977583
77,1015,FarHighWide_null,0.5,0.25,0.03,0.001995262314968878,1,0.3959739819983952
77,1016,Constant,0.1,0.1,0.1,0.007943282347242812,0,0.4903892550028104
77,1017,FarHighWide,0.5,0.25,0.03,0.00501187233627272,0,0.509453171001951
77,1018,FarLowNarrow,0.1,0.15,0.2,0.012589254117941668,1,0.33149855499868863
77,1019,FarLowWide,0.03,0.25,0.5,0.012589254117941666,0,0.35248641400175984
77,1020,ThreeLinesControl,0.0,0.0,0.1,0.025118864315095798,1,0.34284200299953227
77,1021,FarLowWide,0.03,0.25,0.5,0.015848931924611127,0,0.44475164499817765
77,1022,FarHighWide,0.5,0.25,0.03,0.006309573444801929,0,0.5627801769987855
77,1023,FarHighWide,0.5,0.25,0.03,0.007943282347242812,0,0.4161064299987629
77,1024,Constant,0.1,0.1,0.1,0.009999999999999997,1,0.28716080100275576
77,1025,FarHighWide,0.5,0.25,0.03,0.009999999999999997,1,0.34946084799958044
77,1026,FarLowNarrow,0.1,0.15,0.2,0.009999999999999997,1,0.35602501499670325
77,1027,ThreeLinesControl,0.0,0.0,0.1,0.019952623149688792,1,0.419182475998241
77,1028,FarHighNarrow,0.2,0.15,0.1,0.006309573444801929,1,0.31913448100021924
77,1029,FarLowWide,0.03,0.25,0.5,0.01995262314968879,1,0.3882893709997006
77,1030,ThreeLinesControl,0.0,0.0,0.1,0.01584893192461113,0,0.40019996499904664
77,1031,FarLowWide_null,0.03,0.25,0.5,0.01995262314968879,1,0.3903904849976243
77,1032,ThreeLinesControl,0.0,0.0,0.1,0.019952623149688792,1,0.36351589300102205
77,1033,FarLowNarrow,0.1,0.15,0.2,0.007943282347242812,0,0.3595738149997487
77,1034,FarLowWide,0.03,0.25,0.5,0.015848931924611127,0,0.3407699790004699
77,1035,Constant_null,0.1,0.1,0.1,0.005011872336272719,1,0.3787471129980986
77,1036,FarLowNarrow,0.1,0.15,0.2,0.009999999999999997,0,0.4811758499999996
77,1037,FarHighNarrow,0.2,0.15,0.1,0.00501187233627272,0,0.4074155449998216
77,1038,FarLowWide,0.03,0.25,0.5,0.01995262314968879,0,0.3562738110013015
77,1039,Constant,0.1,0.1,0.1,0.007943282347242812,0,0.3383049049989495
77,1040,FarHighWide,0.5,0.25,0.03,0.007943282347242812,0,0.38467335300083505
77,1041,ThreeLinesControl,0.0,0.0,0.1,0.01584893192461113,1,0.34293939500275883
77,1042,FarHighWide,0.5,0.25,0.03,0.009999999999999997,0,0.350272991003294
77,1043,Constant,0.1,0.1,0.1,0.009999999999999997,0,0.4201881160006451
77,1044,FarHighNarrow_null,0.2,0.15,0.1,0.03981071705534971,0,0.43201427899839473
77,1045,FarHighWide,0.5,0.25,0.03,0.012589254117941668,0,0.366534197000874
77,1046,FarLowWide_null,0.03,0.25,0.5,0.015848931924611127,1,0.3078988550005306
77,1047,FarLowNarrow,0.1,0.15,0.2,0.012589254117941668,1,0.4555986160012253
77,1048,Constant,0.1,0.1,0.1,0.012589254117941668,1,0.33353319100206136
77,1049,FarHighWide,0.5,0.25,0.03,0.01584893192461113,1,0.2809500029979972
77,1050,FarLowNarrow,0.1,0.15,0.2,0.009999999999999997,0,0.3201666099994327
77,1051,Constant,0.1,0.1,0.1,0.009999999999999997,0,0.38827904400022817
77,1052,FarLowNarrow,0.1,0.15,0.2,0.012589254117941668,0,0.3386685049990774
77,1053,FarHighWide,0.5,0.25,0.03,0.012589254117941668,0,0.3364518849994056
77,1054,FarHighWide,0.5,0.25,0.03,0.01584893192461113,1,0.28580584800147335
77,1055,FarLowWide,0.03,0.25,0.5,0.025118864315095794,1,0.2840129819996946
77,1056,FarHighWide,0.5,0.25,0.03,0.012589254117941668,0,0.34609405499941204
77,1057,ThreeLinesControl,0.0,0.0,0.1,0.012589254117941668,0,0.3203444619975926
77,1058,FarHighNarrow,0.2,0.15,0.1,0.006309573444801929,1,0.3157256320009765
77,1059,FarHighNarrow_null,0.2,0.15,0.1,0.05011872336272721,1,0.3539238140001544
77,1060,FarHighWide,0.5,0.25,0.03,0.01584893192461113,1,0.35766773400246166
77,1061,FarLowWide,0.03,0.25,0.5,0.01995262314968879,1,0.2683095840002352
77,1062,Constant,0.1,0.1,0.1,0.012589254117941668,1,0.3858973220012558
77,1063,ThreeLinesControl,0.0,0.0,0.1,0.01584893192461113,1,0.34094310000000405
77,1064,FarLowNarrow,0.1,0.15,0.2,0.01584893192461113,1,0.27543585899911704
77,1065,FarLowNarrow,0.1,0.15,0.2,0.012589254117941668,1,0.34942669400334125
77,1066,FarLowNarrow,0.1,0.15,0.2,0.009999999999999997,0,0.2918166020026547
77,1067,FarLowWide,0.03,0.25,0.5,0.015848931924611127,1,0.2660809200024232
77,1068,FarLowWide,0.03,0.25,0.5,0.012589254117941666,1,0.33578612499695737
77,1069,ThreeLinesControl,0.0,0.0,0.1,0.012589254117941668,0,99
77,1070,FarLowWide_null,0.03,0.25,0.5,0.012589254117941666,1,0.5401359879979282
77,1071,ThreeLinesControl,0.0,0.0,0.1,0.01584893192461113,0,0.3944833529967582
77,1072,FarHighWide,0.5,0.25,0.03,0.012589254117941668,1,0.5526359420000517
77,1073,ThreeLinesControl,0.0,0.0,0.1,0.019952623149688792,1,0.38265304699962144
77,1074,FarHighWide,0.5,0.25,0.03,0.009999999999999997,0,0.43706341099823476
77,1075,Constant,0.1,0.1,0.1,0.009999999999999997,1,0.27494644800026435
77,1076,FarHighNarrow,0.2,0.15,0.1,0.00501187233627272,1,0.3512708849993942
77,1077,Constant,0.1,0.1,0.1,0.007943282347242812,1,0.38904293199811946
77,1078,FarLowWide,0.03,0.25,0.5,0.009999999999999995,1,0.2902294539999275
77,1079,Constant,0.1,0.1,0.1,0.006309573444801929,0,0.40665815900138114
77,1080,FarHighNarrow,0.2,0.15,0.1,0.00398107170553497,1,0.43790057099977275
77,1081,FarHighWide,0.5,0.25,0.03,0.012589254117941668,1,0.44304341200040653
77,1082,FarHighNarrow,0.2,0.15,0.1,0.0031622776601683772,0,0.3532040519967268
77,1083,Constant,0.1,0.1,0.1,0.007943282347242812,0,0.33641318599984515
77,1084,FarHighWide,0.5,0.25,0.03,0.009999999999999997,0,0.3555724759971781
77,1085,FarHighNarrow_null,0.2,0.15,0.1,0.03981071705534971,0,0.32150368300062837
77,1086,FarHighWide,0.5,0.25,0.03,0.012589254117941668,0,0.30363603200021316
77,1087,FarLowNarrow,0.1,0.15,0.2,0.012589254117941668,0,0.3229278230028285
77,1088,ThreeLinesControl,0.0,0.0,0.1,0.01584893192461113,0,0.36102187399956165
77,1089,ThreeLinesControl_null,0.0,0.0,0.1,0.0015848931924611121,1,0.3433587740000803
77,1090,ThreeLinesControl,0.0,0.0,0.1,0.019952623149688792,0,0.3313985299973865
77,1091,FarLowWide,0.03,0.25,0.5,0.00794328234724281,1,0.36048388500057627
77,1092,Constant,0.1,0.1,0.1,0.009999999999999997,1,0.33449740900323377
77,1093,Constant,0.1,0.1,0.1,0.007943282347242812,1,0.2927642639988335
77,1094,Constant,0.1,0.1,0.1,0.006309573444801929,0,0.3788636649987893
77,1095,FarLowWide,0.03,0.25,0.5,0.0063095734448019285,0,0.3128999369982921
77,1096,FarHighWide,0.5,0.25,0.03,0.01584893192461113,1,0.32609872600005474
77,1097,Constant,0.1,0.1,0.1,0.007943282347242812,1,0.30823529599729227
77,1098,ThreeLinesControl,0.0,0.0,0.1,0.025118864315095798,0,99
77,1099,Constant,0.1,0.1,0.1,0.006309573444801929,1,0.281046617001266
77,1100,Constant,0.1,0.1,0.1,0.00501187233627272,0,0.33268994700119947
77,1101,FarHighWide,0.5,0.25,0.03,0.012589254117941668,1,0.2828185080034018
77,1102,FarLowWide,0.03,0.25,0.5,0.00794328234724281,0,0.2891973900004814
77,1103,FarLowWide,0.03,0.25,0.5,0.009999999999999995,1,0.27630450400101836
77,1104,Constant,0.1,0.1,0.1,0.006309573444801929,0,0.3785162290005246
77,1105,FarHighWide,0.5,0.25,0.03,0.009999999999999997,1,0.30457328900229186
77,1106,FarHighWide,0.5,0.25,0.03,0.007943282347242812,0,0.45984874699934153
77,1107,Constant,0.1,0.1,0.1,0.007943282347242812,1,0.36981136100075673
77,1108,FarHighWide,0.5,0.25,0.03,0.009999999999999997,0,0.3040295460014022
77,1109,FarLowWide,0.03,0.25,0.5,0.00794328234724281,1,0.30917663099899073
77,1110,FarLowNarrow,0.1,0.15,0.2,0.01584893192461113,1,0.5552875089997542
77,1111,FarHighNarrow_null,0.2,0.15,0.1,0.05011872336272721,1,0.41700913500244496
77,1112,FarLowWide,0.03,0.25,0.5,0.0063095734448019285,0,0.3276717189983174
77,1113,ThreeLinesControl_null,0.0,0.0,0.1,0.001258925411794166,1,0.37369851200128323
77,1114,FarLowNarrow,0.1,0.15,0.2,0.012589254117941668,1,0.3484017659975507
77,1115,ThreeLinesControl,0.0,0.0,0.1,0.03162277660168379,1,0.3050654710023082
77,1116,FarLowWide,0.03,0.25,0.5,0.00794328234724281,0,0.32823473700045724
77,1117,FarLowNarrow,0.1,0.15,0.2,0.009999999999999997,1,0.35538018599982024
77,1118,FarHighNarrow,0.2,0.15,0.1,0.00398107170553497,1,0.39277816100002383
77,1119,ThreeLinesControl,0.0,0.0,0.1,0.025118864315095798,1,0.4125549599993974
77,1120,FarHighNarrow,0.2,0.15,0.1,0.0031622776601683772,0,0.3469692600010603
77,1121,Constant,0.1,0.1,0.1,0.006309573444801929,0,0.3608970370005409
77,1122,FarHighWide,0.5,0.25,0.03,0.012589254117941668,1,0.2843010270007653
77,1123,FarLowWide,0.03,0.25,0.5,0.009999999999999995,0,0.3143761040009849
77,1124,ThreeLinesControl,0.0,0.0,0.1,0.019952623149688792,1,0.22418258000107016
77,1125,FarLowNarrow,0.1,0.15,0.2,0.007943282347242812,0,0.2864544139993086
77,1126,FarLowWide_null,0.03,0.25,0.5,0.009999999999999995,1,0.3727213789970847
77,1127,FarHighNarrow,0.2,0.15,0.1,0.00398107170553497,1,0.330982978000975
77,1128,Constant,0.1,0.1,0.1,0.007943282347242812,0,0.3769829619996017
77,1129,ThreeLinesControl,0.0,0.0,0.1,0.01584893192461113,0,0.4233620719969622
77,1130,ThreeLinesControl,0.0,0.0,0.1,0.019952623149688792,1,0.3243475350027438
77,1131,FarLowNarrow,0.1,0.15,0.2,0.009999999999999997,0,0.40236069400270935
77,1132,Constant,0.1,0.1,0.1,0.009999999999999997,1,0.44843714400121826
77,1133,FarLowNarrow,0.1,0.15,0.2,0.012589254117941668,1,0.3156873119987722
77,1134,FarHighWide,0.5,0.25,0.03,0.009999999999999997,0,0.40996525599985034
77,1135,Constant_null,0.1,0.1,0.1,0.00398107170553497,1,0.32795175299906987
77,1136,FarLowWide,0.03,0.25,0.5,0.012589254117941666,1,0.30730289699931745
77,1137,FarHighWide,0.5,0.25,0.03,0.012589254117941668,0,0.337327188000927
77,1138,FarLowNarrow,0.1,0.15,0.2,0.009999999999999997,0,0.39758923900080845
77,1139,FarLowWide,0.03,0.25,0.5,0.009999999999999995,0,0.3956268279980577
77,1140,Constant,0.1,0.1,0.1,0.007943282347242812,1,0.42572300900064874
77,1141,ThreeLinesControl,0.0,0.0,0.1,0.01584893192461113,1,0.32687987399913254
77,1142,FarLowWide,0.03,0.25,0.5,0.012589254117941666,0,0.3088796830015781
77,1143,FarHighNarrow,0.2,0.15,0.1,0.0031622776601683772,1,0.2754083760009962
77,1144,FarHighWide,0.5,0.25,0.03,0.01584893192461113,1,0.2888088379986584
77,1145,FarLowNarrow,0.1,0.15,0.2,0.012589254117941668,0,0.37549578299876885
77,1146,FarHighWide,0.5,0.25,0.03,0.012589254117941668,1,0.31576249600038864
77,1147,FarLowNarrow,0.1,0.15,0.2,0.01584893192461113,1,0.2989124500018079
77,1148,FarLowWide_null,0.03,0.25,0.5,0.00794328234724281,1,0.2738589590007905
77,1149,FarHighNarrow,0.2,0.15,0.1,0.002511886431509578,0,0.3811379360013234
77,1150,ThreeLinesControl,0.0,0.0,0.1,0.012589254117941668,0,0.3712211969977943
77,1151,FarHighNarrow,0.2,0.15,0.1,0.0031622776601683772,1,0.2883638380008051
77,1152,FarLowNarrow,0.1,0.15,0.2,0.012589254117941668,1,0.3244868599977053
77,1153,Constant,0.1,0.1,0.1,0.006309573444801929,0,0.3456438990033348
77,1154,FarHighWide,0.5,0.25,0.03,0.009999999999999997,0,0.32062068300001556
77,1155,FarHighWide,0.5,0.25,0.03,0.012589254117941668,0,0.4370028720004484
77,1156,FarLowWide_null,0.03,0.25,0.5,0.0063095734448019285,1,0.3553190380007436
77,1157,FarHighNarrow,0.2,0.15,0.1,0.002511886431509578,0,0.3532254970014037
77,1158,ThreeLinesControl,0.0,0.0,0.1,0.01584893192461113,1,0.2943261350010289
77,1159,ThreeLinesControl,0.0,0.0,0.1,0.012589254117941668,0,0.31661880500178086
77,1160,FarHighWide,0.5,0.25,0.03,0.01584893192461113,1,0.3718169620005938
77,1161,Constant,0.1,0.1,0.1,0.007943282347242812,0,0.4259207399991283
77,1162,FarHighWide,0.5,0.25,0.03,0.012589254117941668,0,0.3519625859989901
77,1163,FarHighNarrow,0.2,0.15,0.1,0.0031622776601683772,1,0.3251621460003662
77,1164,FarHighNarrow,0.2,0.15,0.1,0.002511886431509578,0,0.40322528300021077
77,1165,FarHighNarrow,0.2,0.15,0.1,0.0031622776601683772,0,0.31750317299884045
77,1166,FarHighWide,0.5,0.25,0.03,0.01584893192461113,1,0.3555399229990144
77,1167,FarHighNarrow,0.2,0.15,0.1,0.00398107170553497,1,0.3536636210010329
77,1168,Constant,0.1,0.1,0.1,0.009999999999999997,0,0.3240604969978449
77,1169,FarHighNarrow,0.2,0.15,0.1,0.0031622776601683772,0,0.41021882699715206
77,1170,FarHighNarrow,0.2,0.15,0.1,0.00398107170553497,0,0.3679059550013335
77,1171,Constant,0.1,0.1,0.1,0.012589254117941668,0,0.3254056750010932
77,1172,Constant,0.1,0.1,0.1,0.01584893192461113,1,0.3155766859999858
77,1173,Constant,0.1,0.1,0.1,0.012589254117941668,1,0.2816067989988369
77,1174,Constant,0.1,0.1,0.1,0.009999999999999997,1,0.36010137799894437
77,1175,FarLowWide_null,0.03,0.25,0.5,0.005011872336272719,1,0.32594569600041723
77,1176,FarHighNarrow,0.2,0.15,0.1,0.00501187233627272,0,0.516380321001634
77,1177,Constant,0.1,0.1,0.1,0.007943282347242812,0,0.43543601000055787
77,1178,Constant,0.1,0.1,0.1,0.009999999999999997,1,0.4482441229993128
77,1179,Constant,0.1,0.1,0.1,0.007943282347242812,0,0.3574653309988207
77,1180,FarHighNarrow,0.2,0.15,0.1,0.006309573444801929,0,0.37889031899976544
77,1181,FarHighNarrow,0.2,0.15,0.1,0.007943282347242812,0,0.47298001399758505
77,1182,FarHighNarrow,0.2,0.15,0.1,0.009999999999999997,1,0.38785463300155243
77,1183,Constant_null,0.1,0.1,0.1,0.0031622776601683772,1,0.3060702190014126
77,1184,FarHighNarrow,0.2,0.15,0.1,0.007943282347242812,1,0.3410214030009229
77,1185,FarHighNarrow,0.2,0.15,0.1,0.006309573444801929,0,0.339368820998061
77,1186,FarHighNarrow,0.2,0.15,0.1,0.007943282347242812,1,0.2653154330000689
77,1187,FarHighNarrow,0.2,0.15,0.1,0.006309573444801929,0,0.32657292500152835
77,1188,FarHighNarrow,0.2,0.15,0.1,0.007943282347242812,1,0.348928163999517
77,1189,FarHighNarrow,0.2,0.15,0.1,0.006309573444801929,1,0.6033562229968084
77,1190,FarHighNarrow,0.2,0.15,0.1,0.00501187233627272,0,0.33714360399972065
77,1191,FarLowWide_null,0.03,0.25,0.5,0.00398107170553497,1,0.43842537900127354
77,1192,FarLowWide_null,0.03,0.25,0.5,0.0031622776601683772,1,0.4698892669985071
77,1193,FarLowNarrow_null,0.1,0.15,0.2,0.0063095734448019285,1,0.3958452129991201
77,1194,FarLowWide_null,0.03,0.25,0.5,0.002511886431509578,1,0.3551788160002616
77,1195,FarLowWide_null,0.03,0.25,0.5,0.001995262314968878,1,0.43804805200124974
77,1196,FarLowNarrow_null,0.1,0.15,0.2,0.005011872336272719,1,0.4520928099991579
77,1197,FarLowNarrow_null,0.1,0.15,0.2,0.00398107170553497,0,99
77,1198,FarLowNarrow_null,0.1,0.15,0.2,0.00501187233627272,1,0.34133393299998716
77,1199,FarLowWide_null,0.03,0.25,0.5,0.0015848931924611121,1,0.35531481700309087
