"Participant_Number","Trial_Number","Condition","FCfar","FCmed","FCclose","Target_Contrast","Correct_Response","Reaction_Time","TC_c","TC_michelson","TC_michelson_c","FCfar_c","FCfar_michelson","FCfar_michelson_c","FCmed_c","FCmed_michelson","FCmed_michelson_c","FCclose_c","FCclose_michelson","FCclose_michelson_c","CondShort","TC_factor","WidthGroup","ExpectedGroup","performance","weights"
75,0,"FarLowNarrow",0.1,0.15,0.2,0.1,1,0.6266644490006,0.0801609841321772,0.048,0.0382893719806763,-0.0542463768115942,0.048,-0.0186740740740741,0.000346215780998388,0.07,0.00182930756843801,0.0280144927536232,0.091,0.0158739130434783,"DN","High","narrow","low",1,1
75,1,"FarLowNarrow",0.1,0.15,0.2,0.0794328234724282,1,0.296779544998572,0.0595938076046054,0.038,0.0282893719806763,-0.0542463768115942,0.048,-0.0186740740740741,0.000346215780998388,0.07,0.00182930756843801,0.0280144927536232,0.091,0.0158739130434783,"DN","High","narrow","low",1,1
75,2,"FarLowNarrow",0.1,0.15,0.2,0.0630957344480193,1,0.453866159999961,0.0432567185801965,0.031,0.0212893719806763,-0.0542463768115942,0.048,-0.0186740740740741,0.000346215780998388,0.07,0.00182930756843801,0.0280144927536232,0.091,0.0158739130434783,"DN","High","narrow","low",1,1
75,3,"FarHighWide",0.5,0.25,0.03,0.1,1,0.427735496999958,0.0801609841321772,0.048,0.0382893719806763,0.345753623188406,0.2,0.133325925925926,0.100346215780998,0.111,0.042829307568438,-0.141985507246377,0.015,-0.0601260869565217,"IW","High","wide","high",1,1
75,4,"FarLowNarrow",0.1,0.15,0.2,0.0501187233627272,1,0.586362125999585,0.0302797074949044,0.024,0.0142893719806763,-0.0542463768115942,0.048,-0.0186740740740741,0.000346215780998388,0.07,0.00182930756843801,0.0280144927536232,0.091,0.0158739130434783,"DN","High","narrow","low",1,1
75,5,"Constant",0.1,0.1,0.1,0.1,1,0.576581184999668,0.0801609841321772,0.048,0.0382893719806763,-0.0542463768115942,0.048,-0.0186740740740741,-0.0496537842190016,0.048,-0.020170692431562,-0.0719855072463768,0.048,-0.0271260869565217,"Constant","High","controls","high",1,1
75,6,"FarLowNarrow",0.1,0.15,0.2,0.0398107170553497,1,0.647651569001027,0.0199717011875269,0.019,0.00928937198067633,-0.0542463768115942,0.048,-0.0186740740740741,0.000346215780998388,0.07,0.00182930756843801,0.0280144927536232,0.091,0.0158739130434783,"DN","High","narrow","low",1,1
75,7,"ThreeLinesControl",0,0,0.1,0.1,1,0.734655836000456,0.0801609841321772,0.048,0.0382893719806763,-0.154246376811594,0,-0.0666740740740741,-0.149653784219002,0,-0.068170692431562,-0.0719855072463768,0.048,-0.0271260869565217,"Single","High","controls","low",1,1
75,8,"ThreeLinesControl",0,0,0.1,0.0794328234724282,1,0.753604444000302,0.0595938076046054,0.038,0.0282893719806763,-0.154246376811594,0,-0.0666740740740741,-0.149653784219002,0,-0.068170692431562,-0.0719855072463768,0.048,-0.0271260869565217,"Single","High","controls","low",1,1
75,9,"ThreeLinesControl",0,0,0.1,0.0630957344480193,1,0.760259091000989,0.0432567185801965,0.031,0.0212893719806763,-0.154246376811594,0,-0.0666740740740741,-0.149653784219002,0,-0.068170692431562,-0.0719855072463768,0.048,-0.0271260869565217,"Single","High","controls","low",1,1
75,10,"FarHighNarrow",0.2,0.15,0.1,0.1,1,0.819049560999701,0.0801609841321772,0.048,0.0382893719806763,0.0457536231884058,0.091,0.0243259259259259,0.000346215780998388,0.07,0.00182930756843801,-0.0719855072463768,0.048,-0.0271260869565217,"IN","High","narrow","high",1,1
75,11,"Constant",0.1,0.1,0.1,0.0794328234724282,1,0.720210719000534,0.0595938076046054,0.038,0.0282893719806763,-0.0542463768115942,0.048,-0.0186740740740741,-0.0496537842190016,0.048,-0.020170692431562,-0.0719855072463768,0.048,-0.0271260869565217,"Constant","High","controls","high",1,1
75,12,"ThreeLinesControl",0,0,0.1,0.0501187233627272,1,0.694399726999109,0.0302797074949044,0.024,0.0142893719806763,-0.154246376811594,0,-0.0666740740740741,-0.149653784219002,0,-0.068170692431562,-0.0719855072463768,0.048,-0.0271260869565217,"Single","High","controls","low",1,1
75,13,"FarHighNarrow",0.2,0.15,0.1,0.0794328234724282,1,0.634616379000363,0.0595938076046054,0.038,0.0282893719806763,0.0457536231884058,0.091,0.0243259259259259,0.000346215780998388,0.07,0.00182930756843801,-0.0719855072463768,0.048,-0.0271260869565217,"IN","High","narrow","high",1,1
75,14,"FarLowNarrow",0.1,0.15,0.2,0.0316227766016838,1,0.608483526999407,0.011783760733861,0.016,0.00628937198067633,-0.0542463768115942,0.048,-0.0186740740740741,0.000346215780998388,0.07,0.00182930756843801,0.0280144927536232,0.091,0.0158739130434783,"DN","High","narrow","low",1,5
75,15,"FarHighWide",0.5,0.25,0.03,0.0794328234724282,1,0.744658763000189,0.0595938076046054,0.038,0.0282893719806763,0.345753623188406,0.2,0.133325925925926,0.100346215780998,0.111,0.042829307568438,-0.141985507246377,0.015,-0.0601260869565217,"IW","High","wide","high",1,1
75,16,"FarLowWide",0.03,0.25,0.5,0.1,1,0.756262353999773,0.0801609841321772,0.048,0.0382893719806763,-0.124246376811594,0.015,-0.0516740740740741,0.100346215780998,0.111,0.042829307568438,0.328014492753623,0.2,0.124873913043478,"DW","High","wide","low",1,2
75,17,"FarLowWide",0.03,0.25,0.5,0.0794328234724282,1,0.801839597999788,0.0595938076046054,0.038,0.0282893719806763,-0.124246376811594,0.015,-0.0516740740740741,0.100346215780998,0.111,0.042829307568438,0.328014492753623,0.2,0.124873913043478,"DW","High","wide","low",1,2
75,19,"FarLowWide",0.03,0.25,0.5,0.0630957344480193,1,0.534278209999684,0.0432567185801965,0.031,0.0212893719806763,-0.124246376811594,0.015,-0.0516740740740741,0.100346215780998,0.111,0.042829307568438,0.328014492753623,0.2,0.124873913043478,"DW","High","wide","low",1,2
75,20,"FarHighWide",0.5,0.25,0.03,0.0630957344480193,1,0.500687539000864,0.0432567185801965,0.031,0.0212893719806763,0.345753623188406,0.2,0.133325925925926,0.100346215780998,0.111,0.042829307568438,-0.141985507246377,0.015,-0.0601260869565217,"IW","High","wide","high",1,1
75,21,"Constant",0.1,0.1,0.1,0.0630957344480193,1,0.521384752999438,0.0432567185801965,0.031,0.0212893719806763,-0.0542463768115942,0.048,-0.0186740740740741,-0.0496537842190016,0.048,-0.020170692431562,-0.0719855072463768,0.048,-0.0271260869565217,"Constant","High","controls","high",1,1
75,22,"FarLowNarrow",0.1,0.15,0.2,0.0251188643150958,1,0.456202139999732,0.00527984844727299,0.012,0.00228937198067633,-0.0542463768115942,0.048,-0.0186740740740741,0.000346215780998388,0.07,0.00182930756843801,0.0280144927536232,0.091,0.0158739130434783,"DN","High","narrow","low",1,4
75,24,"FarLowWide",0.03,0.25,0.5,0.0501187233627272,1,0.714032538000538,0.0302797074949044,0.024,0.0142893719806763,-0.124246376811594,0.015,-0.0516740740740741,0.100346215780998,0.111,0.042829307568438,0.328014492753623,0.2,0.124873913043478,"DW","High","wide","low",1,2
75,25,"FarHighWide",0.5,0.25,0.03,0.0501187233627272,1,0.552041754999664,0.0302797074949044,0.024,0.0142893719806763,0.345753623188406,0.2,0.133325925925926,0.100346215780998,0.111,0.042829307568438,-0.141985507246377,0.015,-0.0601260869565217,"IW","High","wide","high",1,1
75,27,"ThreeLinesControl",0,0,0.1,0.0398107170553497,1,0.513412610000159,0.0199717011875269,0.019,0.00928937198067633,-0.154246376811594,0,-0.0666740740740741,-0.149653784219002,0,-0.068170692431562,-0.0719855072463768,0.048,-0.0271260869565217,"Single","High","controls","low",1,1
75,29,"FarLowWide",0.03,0.25,0.5,0.0398107170553497,1,0.619832854999913,0.0199717011875269,0.019,0.00928937198067633,-0.124246376811594,0.015,-0.0516740740740741,0.100346215780998,0.111,0.042829307568438,0.328014492753623,0.2,0.124873913043478,"DW","High","wide","low",1,1
75,31,"Constant",0.1,0.1,0.1,0.0501187233627272,1,0.318998080998426,0.0302797074949044,0.024,0.0142893719806763,-0.0542463768115942,0.048,-0.0186740740740741,-0.0496537842190016,0.048,-0.020170692431562,-0.0719855072463768,0.048,-0.0271260869565217,"Constant","High","controls","high",1,1
75,32,"FarLowNarrow",0.1,0.15,0.2,0.0199526231496888,1,0.700998006999725,0.000113607281865984,0.01,0.000289371980676328,-0.0542463768115942,0.048,-0.0186740740740741,0.000346215780998388,0.07,0.00182930756843801,0.0280144927536232,0.091,0.0158739130434783,"DN","Medium","narrow","low",0.590909090909091,22
75,33,"Constant",0.1,0.1,0.1,0.0398107170553497,1,0.627582607001386,0.0199717011875269,0.019,0.00928937198067633,-0.0542463768115942,0.048,-0.0186740740740741,-0.0496537842190016,0.048,-0.020170692431562,-0.0719855072463768,0.048,-0.0271260869565217,"Constant","High","controls","high",1,2
75,34,"ThreeLinesControl",0,0,0.1,0.0316227766016838,1,0.609634350999841,0.011783760733861,0.016,0.00628937198067633,-0.154246376811594,0,-0.0666740740740741,-0.149653784219002,0,-0.068170692431562,-0.0719855072463768,0.048,-0.0271260869565217,"Single","High","controls","low",1,3
75,35,"FarLowWide",0.03,0.25,0.5,0.0316227766016838,1,0.35973086499871,0.011783760733861,0.016,0.00628937198067633,-0.124246376811594,0.015,-0.0516740740740741,0.100346215780998,0.111,0.042829307568438,0.328014492753623,0.2,0.124873913043478,"DW","High","wide","low",0.857142857142857,7
75,36,"FarLowNarrow",0.1,0.15,0.2,0.0158489319246111,1,0.341923521998979,-0.00399008394321168,0.008,-0.00171062801932367,-0.0542463768115942,0.048,-0.0186740740740741,0.000346215780998388,0.07,0.00182930756843801,0.0280144927536232,0.091,0.0158739130434783,"DN","Medium","narrow","low",0.606060606060606,33
75,37,"FarHighWide",0.5,0.25,0.03,0.0398107170553497,1,0.340619733000494,0.0199717011875269,0.019,0.00928937198067633,0.345753623188406,0.2,0.133325925925926,0.100346215780998,0.111,0.042829307568438,-0.141985507246377,0.015,-0.0601260869565217,"IW","High","wide","high",1,1
75,38,"FarHighWide",0.5,0.25,0.03,0.0316227766016838,1,0.361838635999447,0.011783760733861,0.016,0.00628937198067633,0.345753623188406,0.2,0.133325925925926,0.100346215780998,0.111,0.042829307568438,-0.141985507246377,0.015,-0.0601260869565217,"IW","High","wide","high",1,2
75,39,"FarLowWide",0.03,0.25,0.5,0.0251188643150958,1,0.360443393999958,0.00527984844727299,0.012,0.00228937198067633,-0.124246376811594,0.015,-0.0516740740740741,0.100346215780998,0.111,0.042829307568438,0.328014492753623,0.2,0.124873913043478,"DW","High","wide","low",0.666666666666667,6
75,40,"FarHighNarrow",0.2,0.15,0.1,0.0630957344480193,1,0.331365734999054,0.0432567185801965,0.031,0.0212893719806763,0.0457536231884058,0.091,0.0243259259259259,0.000346215780998388,0.07,0.00182930756843801,-0.0719855072463768,0.048,-0.0271260869565217,"IN","High","narrow","high",1,1
75,41,"FarLowWide",0.03,0.25,0.5,0.0199526231496888,0,0.633552970999517,0.000113607281865984,0.01,0.000289371980676328,-0.124246376811594,0.015,-0.0516740740740741,0.100346215780998,0.111,0.042829307568438,0.328014492753623,0.2,0.124873913043478,"DW","Medium","wide","low",0.294117647058824,34
75,42,"FarHighWide",0.5,0.25,0.03,0.0251188643150958,1,0.496001806001004,0.00527984844727299,0.012,0.00228937198067633,0.345753623188406,0.2,0.133325925925926,0.100346215780998,0.111,0.042829307568438,-0.141985507246377,0.015,-0.0601260869565217,"IW","High","wide","high",1,1
75,44,"Constant",0.1,0.1,0.1,0.0316227766016838,1,0.441135606999524,0.011783760733861,0.016,0.00628937198067633,-0.0542463768115942,0.048,-0.0186740740740741,-0.0496537842190016,0.048,-0.020170692431562,-0.0719855072463768,0.048,-0.0271260869565217,"Constant","High","controls","high",1,3
75,45,"FarHighNarrow",0.2,0.15,0.1,0.0501187233627272,1,0.325021852999271,0.0302797074949044,0.024,0.0142893719806763,0.0457536231884058,0.091,0.0243259259259259,0.000346215780998388,0.07,0.00182930756843801,-0.0719855072463768,0.048,-0.0271260869565217,"IN","High","narrow","high",1,1
75,46,"ThreeLinesControl",0,0,0.1,0.0251188643150958,1,0.459410432000368,0.00527984844727299,0.012,0.00228937198067633,-0.154246376811594,0,-0.0666740740740741,-0.149653784219002,0,-0.068170692431562,-0.0719855072463768,0.048,-0.0271260869565217,"Single","High","controls","low",1,2
75,47,"FarHighWide",0.5,0.25,0.03,0.0199526231496888,1,0.745664334999674,0.000113607281865984,0.01,0.000289371980676328,0.345753623188406,0.2,0.133325925925926,0.100346215780998,0.111,0.042829307568438,-0.141985507246377,0.015,-0.0601260869565217,"IW","Medium","wide","high",1,1
75,48,"FarLowNarrow",0.1,0.15,0.2,0.0125892541179417,1,0.694421026999407,-0.00724976174988114,0.006,-0.00371062801932367,-0.0542463768115942,0.048,-0.0186740740740741,0.000346215780998388,0.07,0.00182930756843801,0.0280144927536232,0.091,0.0158739130434783,"DN","Low","narrow","low",0.285714285714286,28
75,49,"Constant",0.1,0.1,0.1,0.0251188643150958,1,0.596791227000722,0.00527984844727299,0.012,0.00228937198067633,-0.0542463768115942,0.048,-0.0186740740740741,-0.0496537842190016,0.048,-0.020170692431562,-0.0719855072463768,0.048,-0.0271260869565217,"Constant","High","controls","high",0.666666666666667,3
75,50,"Constant",0.1,0.1,0.1,0.0199526231496888,1,0.459063579999565,0.000113607281865984,0.01,0.000289371980676328,-0.0542463768115942,0.048,-0.0186740740740741,-0.0496537842190016,0.048,-0.020170692431562,-0.0719855072463768,0.048,-0.0271260869565217,"Constant","Medium","controls","high",0.777777777777778,9
75,51,"FarLowWide",0.03,0.25,0.5,0.0251188643150958,1,0.329247831999965,0.00527984844727299,0.012,0.00228937198067633,-0.124246376811594,0.015,-0.0516740740740741,0.100346215780998,0.111,0.042829307568438,0.328014492753623,0.2,0.124873913043478,"DW","High","wide","low",0.833333333333333,24
75,52,"FarHighNarrow",0.2,0.15,0.1,0.0398107170553497,1,0.343012080000335,0.0199717011875269,0.019,0.00928937198067633,0.0457536231884058,0.091,0.0243259259259259,0.000346215780998388,0.07,0.00182930756843801,-0.0719855072463768,0.048,-0.0271260869565217,"IN","High","narrow","high",1,2
75,53,"Constant",0.1,0.1,0.1,0.0158489319246111,1,0.444638435999877,-0.00399008394321168,0.008,-0.00171062801932367,-0.0542463768115942,0.048,-0.0186740740740741,-0.0496537842190016,0.048,-0.020170692431562,-0.0719855072463768,0.048,-0.0271260869565217,"Constant","Medium","controls","high",0.75,20
75,54,"FarLowNarrow",0.1,0.15,0.2,0.01,0,0.322973837999598,-0.00983901586782281,0.005,-0.00471062801932367,-0.0542463768115942,0.048,-0.0186740740740741,0.000346215780998388,0.07,0.00182930756843801,0.0280144927536232,0.091,0.0158739130434783,"DN","Low","narrow","low",0.2,10
75,55,"ThreeLinesControl",0,0,0.1,0.0199526231496888,0,0.570187972001804,0.000113607281865984,0.01,0.000289371980676328,-0.154246376811594,0,-0.0666740740740741,-0.149653784219002,0,-0.068170692431562,-0.0719855072463768,0.048,-0.0271260869565217,"Single","Medium","controls","low",0.6875,16
75,56,"ThreeLinesControl",0,0,0.1,0.0251188643150958,1,0.372229495000283,0.00527984844727299,0.012,0.00228937198067633,-0.154246376811594,0,-0.0666740740740741,-0.149653784219002,0,-0.068170692431562,-0.0719855072463768,0.048,-0.0271260869565217,"Single","High","controls","low",0.6,5
75,58,"FarHighWide",0.5,0.25,0.03,0.0158489319246111,1,0.385128019999684,-0.00399008394321168,0.008,-0.00171062801932367,0.345753623188406,0.2,0.133325925925926,0.100346215780998,0.111,0.042829307568438,-0.141985507246377,0.015,-0.0601260869565217,"IW","Medium","wide","high",1,2
75,59,"FarHighNarrow",0.2,0.15,0.1,0.0316227766016838,1,0.315454909999971,0.011783760733861,0.016,0.00628937198067633,0.0457536231884058,0.091,0.0243259259259259,0.000346215780998388,0.07,0.00182930756843801,-0.0719855072463768,0.048,-0.0271260869565217,"IN","High","narrow","high",0.75,4
75,60,"FarLowNarrow",0.1,0.15,0.2,0.0125892541179417,0,0.482421931999852,-0.00724976174988114,0.006,-0.00371062801932367,-0.0542463768115942,0.048,-0.0186740740740741,0.000346215780998388,0.07,0.00182930756843801,0.0280144927536232,0.091,0.0158739130434783,"DN","Low","narrow","low",0.285714285714286,28
75,61,"FarLowWide",0.03,0.25,0.5,0.0199526231496888,0,0.775520081999275,0.000113607281865984,0.01,0.000289371980676328,-0.124246376811594,0.015,-0.0516740740740741,0.100346215780998,0.111,0.042829307568438,0.328014492753623,0.2,0.124873913043478,"DW","Medium","wide","low",0.294117647058824,34
75,62,"FarHighWide",0.5,0.25,0.03,0.0125892541179417,1,0.316532152999571,-0.00724976174988114,0.006,-0.00371062801932367,0.345753623188406,0.2,0.133325925925926,0.100346215780998,0.111,0.042829307568438,-0.141985507246377,0.015,-0.0601260869565217,"IW","Low","wide","high",0.666666666666667,3
75,63,"FarHighNarrow",0.2,0.15,0.1,0.0251188643150958,1,0.297740489999342,0.00527984844727299,0.012,0.00228937198067633,0.0457536231884058,0.091,0.0243259259259259,0.000346215780998388,0.07,0.00182930756843801,-0.0719855072463768,0.048,-0.0271260869565217,"IN","High","narrow","high",1,3
75,64,"Constant",0.1,0.1,0.1,0.0125892541179417,1,0.496081392999258,-0.00724976174988114,0.006,-0.00371062801932367,-0.0542463768115942,0.048,-0.0186740740740741,-0.0496537842190016,0.048,-0.020170692431562,-0.0719855072463768,0.048,-0.0271260869565217,"Constant","Low","controls","high",0.461538461538462,26
75,66,"FarLowNarrow",0.1,0.15,0.2,0.0158489319246111,0,0.435750138000003,-0.00399008394321168,0.008,-0.00171062801932367,-0.0542463768115942,0.048,-0.0186740740740741,0.000346215780998388,0.07,0.00182930756843801,0.0280144927536232,0.091,0.0158739130434783,"DN","Medium","narrow","low",0.606060606060606,33
75,67,"Constant",0.1,0.1,0.1,0.01,0,0.410476188000757,-0.00983901586782281,0.005,-0.00471062801932367,-0.0542463768115942,0.048,-0.0186740740740741,-0.0496537842190016,0.048,-0.020170692431562,-0.0719855072463768,0.048,-0.0271260869565217,"Constant","Low","controls","high",0.454545454545455,22
75,68,"FarHighNarrow",0.2,0.15,0.1,0.0199526231496888,0,0.592619099999865,0.000113607281865984,0.01,0.000289371980676328,0.0457536231884058,0.091,0.0243259259259259,0.000346215780998388,0.07,0.00182930756843801,-0.0719855072463768,0.048,-0.0271260869565217,"IN","Medium","narrow","high",0.636363636363636,22
75,69,"FarHighNarrow",0.2,0.15,0.1,0.0251188643150958,0,0.598631218999799,0.00527984844727299,0.012,0.00228937198067633,0.0457536231884058,0.091,0.0243259259259259,0.000346215780998388,0.07,0.00182930756843801,-0.0719855072463768,0.048,-0.0271260869565217,"IN","High","narrow","high",0.777777777777778,9
75,70,"FarLowWide",0.03,0.25,0.5,0.0251188643150958,1,0.75596666400088,0.00527984844727299,0.012,0.00228937198067633,-0.124246376811594,0.015,-0.0516740740740741,0.100346215780998,0.111,0.042829307568438,0.328014492753623,0.2,0.124873913043478,"DW","High","wide","low",0.833333333333333,24
75,71,"FarLowNarrow",0.1,0.15,0.2,0.0199526231496888,1,1.06733411400091,0.000113607281865984,0.01,0.000289371980676328,-0.0542463768115942,0.048,-0.0186740740740741,0.000346215780998388,0.07,0.00182930756843801,0.0280144927536232,0.091,0.0158739130434783,"DN","Medium","narrow","low",0.590909090909091,22
75,72,"FarHighNarrow",0.2,0.15,0.1,0.0316227766016838,1,0.86222075600017,0.011783760733861,0.016,0.00628937198067633,0.0457536231884058,0.091,0.0243259259259259,0.000346215780998388,0.07,0.00182930756843801,-0.0719855072463768,0.048,-0.0271260869565217,"IN","High","narrow","high",0.75,4
75,73,"FarHighWide",0.5,0.25,0.03,0.01,0,0.940310154999679,-0.00983901586782281,0.005,-0.00471062801932367,0.345753623188406,0.2,0.133325925925926,0.100346215780998,0.111,0.042829307568438,-0.141985507246377,0.015,-0.0601260869565217,"IW","Low","wide","high",0.5,2
75,74,"Constant",0.1,0.1,0.1,0.0125892541179417,0,0.577482180000516,-0.00724976174988114,0.006,-0.00371062801932367,-0.0542463768115942,0.048,-0.0186740740740741,-0.0496537842190016,0.048,-0.020170692431562,-0.0719855072463768,0.048,-0.0271260869565217,"Constant","Low","controls","high",0.461538461538462,26
75,75,"FarLowWide",0.03,0.25,0.5,0.0199526231496888,1,0.908350618999975,0.000113607281865984,0.01,0.000289371980676328,-0.124246376811594,0.015,-0.0516740740740741,0.100346215780998,0.111,0.042829307568438,0.328014492753623,0.2,0.124873913043478,"DW","Medium","wide","low",0.294117647058824,34
75,76,"FarLowNarrow",0.1,0.15,0.2,0.0158489319246111,1,0.738920564001091,-0.00399008394321168,0.008,-0.00171062801932367,-0.0542463768115942,0.048,-0.0186740740740741,0.000346215780998388,0.07,0.00182930756843801,0.0280144927536232,0.091,0.0158739130434783,"DN","Medium","narrow","low",0.606060606060606,33
75,77,"FarHighWide",0.5,0.25,0.03,0.0125892541179417,0,0.600878563000151,-0.00724976174988114,0.006,-0.00371062801932367,0.345753623188406,0.2,0.133325925925926,0.100346215780998,0.111,0.042829307568438,-0.141985507246377,0.015,-0.0601260869565217,"IW","Low","wide","high",0.666666666666667,3
75,78,"FarLowWide",0.03,0.25,0.5,0.0158489319246111,1,0.694197568000163,-0.00399008394321168,0.008,-0.00171062801932367,-0.124246376811594,0.015,-0.0516740740740741,0.100346215780998,0.111,0.042829307568438,0.328014492753623,0.2,0.124873913043478,"DW","Medium","wide","low",0.4,15
75,79,"ThreeLinesControl",0,0,0.1,0.0199526231496888,1,0.811494478000895,0.000113607281865984,0.01,0.000289371980676328,-0.154246376811594,0,-0.0666740740740741,-0.149653784219002,0,-0.068170692431562,-0.0719855072463768,0.048,-0.0271260869565217,"Single","Medium","controls","low",0.6875,16
75,80,"ThreeLinesControl",0,0,0.1,0.0158489319246111,1,1.04149039100048,-0.00399008394321168,0.008,-0.00171062801932367,-0.154246376811594,0,-0.0666740740740741,-0.149653784219002,0,-0.068170692431562,-0.0719855072463768,0.048,-0.0271260869565217,"Single","Medium","controls","low",0.65625,32
75,81,"FarHighWide",0.5,0.25,0.03,0.0158489319246111,1,1.16775017299915,-0.00399008394321168,0.008,-0.00171062801932367,0.345753623188406,0.2,0.133325925925926,0.100346215780998,0.111,0.042829307568438,-0.141985507246377,0.015,-0.0601260869565217,"IW","Medium","wide","high",1,2
75,83,"FarLowWide",0.03,0.25,0.5,0.0125892541179417,0,0.755872976998944,-0.00724976174988114,0.006,-0.00371062801932367,-0.124246376811594,0.015,-0.0516740740740741,0.100346215780998,0.111,0.042829307568438,0.328014492753623,0.2,0.124873913043478,"DW","Low","wide","low",0.142857142857143,7
75,84,"Constant",0.1,0.1,0.1,0.0199526231496888,1,0.602147274999879,0.000113607281865984,0.01,0.000289371980676328,-0.0542463768115942,0.048,-0.0186740740740741,-0.0496537842190016,0.048,-0.020170692431562,-0.0719855072463768,0.048,-0.0271260869565217,"Constant","Medium","controls","high",0.777777777777778,9
75,85,"Constant",0.1,0.1,0.1,0.0158489319246111,1,0.592076462999103,-0.00399008394321168,0.008,-0.00171062801932367,-0.0542463768115942,0.048,-0.0186740740740741,-0.0496537842190016,0.048,-0.020170692431562,-0.0719855072463768,0.048,-0.0271260869565217,"Constant","Medium","controls","high",0.75,20
75,86,"Constant",0.1,0.1,0.1,0.0125892541179417,1,0.653586950000317,-0.00724976174988114,0.006,-0.00371062801932367,-0.0542463768115942,0.048,-0.0186740740740741,-0.0496537842190016,0.048,-0.020170692431562,-0.0719855072463768,0.048,-0.0271260869565217,"Constant","Low","controls","high",0.461538461538462,26
75,87,"FarLowWide",0.03,0.25,0.5,0.0158489319246111,0,0.371425692999765,-0.00399008394321168,0.008,-0.00171062801932367,-0.124246376811594,0.015,-0.0516740740740741,0.100346215780998,0.111,0.042829307568438,0.328014492753623,0.2,0.124873913043478,"DW","Medium","wide","low",0.4,15
75,89,"FarHighNarrow",0.2,0.15,0.1,0.0251188643150958,1,0.484652884999377,0.00527984844727299,0.012,0.00228937198067633,0.0457536231884058,0.091,0.0243259259259259,0.000346215780998388,0.07,0.00182930756843801,-0.0719855072463768,0.048,-0.0271260869565217,"IN","High","narrow","high",1,3
75,90,"FarLowWide",0.03,0.25,0.5,0.0199526231496888,0,0.522806900999058,0.000113607281865984,0.01,0.000289371980676328,-0.124246376811594,0.015,-0.0516740740740741,0.100346215780998,0.111,0.042829307568438,0.328014492753623,0.2,0.124873913043478,"DW","Medium","wide","low",0.294117647058824,34
75,91,"Constant",0.1,0.1,0.1,0.01,1,1.09409770300044,-0.00983901586782281,0.005,-0.00471062801932367,-0.0542463768115942,0.048,-0.0186740740740741,-0.0496537842190016,0.048,-0.020170692431562,-0.0719855072463768,0.048,-0.0271260869565217,"Constant","Low","controls","high",0.454545454545455,22
75,93,"ThreeLinesControl",0,0,0.1,0.0125892541179417,0,0.586460470998645,-0.00724976174988114,0.006,-0.00371062801932367,-0.154246376811594,0,-0.0666740740740741,-0.149653784219002,0,-0.068170692431562,-0.0719855072463768,0.048,-0.0271260869565217,"Single","Low","controls","low",0.296296296296296,27
75,94,"Constant",0.1,0.1,0.1,0.00794328234724281,0,0.414482665999458,-0.01189573352058,0.004,-0.00571062801932367,-0.0542463768115942,0.048,-0.0186740740740741,-0.0496537842190016,0.048,-0.020170692431562,-0.0719855072463768,0.048,-0.0271260869565217,"Constant","Low","controls","high",0.285714285714286,14
75,95,"ThreeLinesControl",0,0,0.1,0.0158489319246111,1,1.22045177200016,-0.00399008394321168,0.008,-0.00171062801932367,-0.154246376811594,0,-0.0666740740740741,-0.149653784219002,0,-0.068170692431562,-0.0719855072463768,0.048,-0.0271260869565217,"Single","Medium","controls","low",0.65625,32
75,96,"FarHighNarrow",0.2,0.15,0.1,0.0199526231496888,1,0.498888091000481,0.000113607281865984,0.01,0.000289371980676328,0.0457536231884058,0.091,0.0243259259259259,0.000346215780998388,0.07,0.00182930756843801,-0.0719855072463768,0.048,-0.0271260869565217,"IN","Medium","narrow","high",0.636363636363636,22
75,97,"ThreeLinesControl",0,0,0.1,0.0125892541179417,1,0.704856207001285,-0.00724976174988114,0.006,-0.00371062801932367,-0.154246376811594,0,-0.0666740740740741,-0.149653784219002,0,-0.068170692431562,-0.0719855072463768,0.048,-0.0271260869565217,"Single","Low","controls","low",0.296296296296296,27
75,98,"Constant",0.1,0.1,0.1,0.01,1,1.15121978300158,-0.00983901586782281,0.005,-0.00471062801932367,-0.0542463768115942,0.048,-0.0186740740740741,-0.0496537842190016,0.048,-0.020170692431562,-0.0719855072463768,0.048,-0.0271260869565217,"Constant","Low","controls","high",0.454545454545455,22
75,99,"FarHighWide",0.5,0.25,0.03,0.0125892541179417,1,0.543060701000286,-0.00724976174988114,0.006,-0.00371062801932367,0.345753623188406,0.2,0.133325925925926,0.100346215780998,0.111,0.042829307568438,-0.141985507246377,0.015,-0.0601260869565217,"IW","Low","wide","high",0.666666666666667,3
75,100,"FarHighWide",0.5,0.25,0.03,0.01,1,0.772935628998312,-0.00983901586782281,0.005,-0.00471062801932367,0.345753623188406,0.2,0.133325925925926,0.100346215780998,0.111,0.042829307568438,-0.141985507246377,0.015,-0.0601260869565217,"IW","Low","wide","high",0.5,2
75,101,"FarLowNarrow",0.1,0.15,0.2,0.0125892541179417,0,1.02017038299891,-0.00724976174988114,0.006,-0.00371062801932367,-0.0542463768115942,0.048,-0.0186740740740741,0.000346215780998388,0.07,0.00182930756843801,0.0280144927536232,0.091,0.0158739130434783,"DN","Low","narrow","low",0.285714285714286,28
75,102,"FarHighWide",0.5,0.25,0.03,0.00794328234724281,1,0.798777643998619,-0.01189573352058,0.004,-0.00571062801932367,0.345753623188406,0.2,0.133325925925926,0.100346215780998,0.111,0.042829307568438,-0.141985507246377,0.015,-0.0601260869565217,"IW","Low","wide","high",1,2
75,103,"FarLowWide",0.03,0.25,0.5,0.0251188643150958,1,0.748901523998939,0.00527984844727299,0.012,0.00228937198067633,-0.124246376811594,0.015,-0.0516740740740741,0.100346215780998,0.111,0.042829307568438,0.328014492753623,0.2,0.124873913043478,"DW","High","wide","low",0.833333333333333,24
75,104,"Constant",0.1,0.1,0.1,0.00794328234724281,1,0.562722255999688,-0.01189573352058,0.004,-0.00571062801932367,-0.0542463768115942,0.048,-0.0186740740740741,-0.0496537842190016,0.048,-0.020170692431562,-0.0719855072463768,0.048,-0.0271260869565217,"Constant","Low","controls","high",0.285714285714286,14
75,105,"FarHighWide",0.5,0.25,0.03,0.00630957344480193,0,1.15033435499936,-0.0135294424230209,0.003,-0.00671062801932367,0.345753623188406,0.2,0.133325925925926,0.100346215780998,0.111,0.042829307568438,-0.141985507246377,0.015,-0.0601260869565217,"IW","Low","wide","high",0.5,2
75,106,"Constant",0.1,0.1,0.1,0.00630957344480193,0,0.644376226000531,-0.0135294424230209,0.003,-0.00671062801932367,-0.0542463768115942,0.048,-0.0186740740740741,-0.0496537842190016,0.048,-0.020170692431562,-0.0719855072463768,0.048,-0.0271260869565217,"Constant","Low","controls","high",0.2,5
75,107,"FarHighNarrow",0.2,0.15,0.1,0.0158489319246111,1,0.362480791000053,-0.00399008394321168,0.008,-0.00171062801932367,0.0457536231884058,0.091,0.0243259259259259,0.000346215780998388,0.07,0.00182930756843801,-0.0719855072463768,0.048,-0.0271260869565217,"IN","Medium","narrow","high",0.52,25
75,108,"FarLowNarrow",0.1,0.15,0.2,0.0158489319246111,1,0.933566607998728,-0.00399008394321168,0.008,-0.00171062801932367,-0.0542463768115942,0.048,-0.0186740740740741,0.000346215780998388,0.07,0.00182930756843801,0.0280144927536232,0.091,0.0158739130434783,"DN","Medium","narrow","low",0.606060606060606,33
75,109,"ThreeLinesControl",0,0,0.1,0.01,1,0.978778225999122,-0.00983901586782281,0.005,-0.00471062801932367,-0.154246376811594,0,-0.0666740740740741,-0.149653784219002,0,-0.068170692431562,-0.0719855072463768,0.048,-0.0271260869565217,"Single","Low","controls","low",0.2,10
75,110,"FarLowNarrow",0.1,0.15,0.2,0.0125892541179417,0,0.680898299000546,-0.00724976174988114,0.006,-0.00371062801932367,-0.0542463768115942,0.048,-0.0186740740740741,0.000346215780998388,0.07,0.00182930756843801,0.0280144927536232,0.091,0.0158739130434783,"DN","Low","narrow","low",0.285714285714286,28
75,111,"ThreeLinesControl",0,0,0.1,0.00794328234724281,0,0.429991262999465,-0.01189573352058,0.004,-0.00571062801932367,-0.154246376811594,0,-0.0666740740740741,-0.149653784219002,0,-0.068170692431562,-0.0719855072463768,0.048,-0.0271260869565217,"Single","Low","controls","low",0,2
75,112,"FarHighWide",0.5,0.25,0.03,0.00794328234724281,1,0.348171673000252,-0.01189573352058,0.004,-0.00571062801932367,0.345753623188406,0.2,0.133325925925926,0.100346215780998,0.111,0.042829307568438,-0.141985507246377,0.015,-0.0601260869565217,"IW","Low","wide","high",1,2
75,113,"FarHighNarrow",0.2,0.15,0.1,0.0125892541179417,1,0.61835253100071,-0.00724976174988114,0.006,-0.00371062801932367,0.0457536231884058,0.091,0.0243259259259259,0.000346215780998388,0.07,0.00182930756843801,-0.0719855072463768,0.048,-0.0271260869565217,"IN","Low","narrow","high",0.352941176470588,17
75,114,"FarLowNarrow",0.1,0.15,0.2,0.0158489319246111,1,0.560685370001011,-0.00399008394321168,0.008,-0.00171062801932367,-0.0542463768115942,0.048,-0.0186740740740741,0.000346215780998388,0.07,0.00182930756843801,0.0280144927536232,0.091,0.0158739130434783,"DN","Medium","narrow","low",0.606060606060606,33
75,115,"ThreeLinesControl",0,0,0.1,0.01,0,0.622539334999601,-0.00983901586782281,0.005,-0.00471062801932367,-0.154246376811594,0,-0.0666740740740741,-0.149653784219002,0,-0.068170692431562,-0.0719855072463768,0.048,-0.0271260869565217,"Single","Low","controls","low",0.2,10
75,116,"ThreeLinesControl",0,0,0.1,0.0125892541179417,0,0.452744419000737,-0.00724976174988114,0.006,-0.00371062801932367,-0.154246376811594,0,-0.0666740740740741,-0.149653784219002,0,-0.068170692431562,-0.0719855072463768,0.048,-0.0271260869565217,"Single","Low","controls","low",0.296296296296296,27
75,117,"FarLowWide",0.03,0.25,0.5,0.0199526231496888,1,0.3791997060016,0.000113607281865984,0.01,0.000289371980676328,-0.124246376811594,0.015,-0.0516740740740741,0.100346215780998,0.111,0.042829307568438,0.328014492753623,0.2,0.124873913043478,"DW","Medium","wide","low",0.294117647058824,34
75,118,"FarHighNarrow",0.2,0.15,0.1,0.01,1,0.282266940001136,-0.00983901586782281,0.005,-0.00471062801932367,0.0457536231884058,0.091,0.0243259259259259,0.000346215780998388,0.07,0.00182930756843801,-0.0719855072463768,0.048,-0.0271260869565217,"IN","Low","narrow","high",0.333333333333333,9
75,119,"Constant",0.1,0.1,0.1,0.00794328234724281,0,0.653993064999668,-0.01189573352058,0.004,-0.00571062801932367,-0.0542463768115942,0.048,-0.0186740740740741,-0.0496537842190016,0.048,-0.020170692431562,-0.0719855072463768,0.048,-0.0271260869565217,"Constant","Low","controls","high",0.285714285714286,14
75,120,"ThreeLinesControl",0,0,0.1,0.0158489319246111,1,0.238503814998694,-0.00399008394321168,0.008,-0.00171062801932367,-0.154246376811594,0,-0.0666740740740741,-0.149653784219002,0,-0.068170692431562,-0.0719855072463768,0.048,-0.0271260869565217,"Single","Medium","controls","low",0.65625,32
75,121,"Constant",0.1,0.1,0.1,0.01,0,0.411933948998922,-0.00983901586782281,0.005,-0.00471062801932367,-0.0542463768115942,0.048,-0.0186740740740741,-0.0496537842190016,0.048,-0.020170692431562,-0.0719855072463768,0.048,-0.0271260869565217,"Constant","Low","controls","high",0.454545454545455,22
75,122,"FarHighNarrow",0.2,0.15,0.1,0.00794328234724281,0,0.369745849999163,-0.01189573352058,0.004,-0.00571062801932367,0.0457536231884058,0.091,0.0243259259259259,0.000346215780998388,0.07,0.00182930756843801,-0.0719855072463768,0.048,-0.0271260869565217,"IN","Low","narrow","high",0,3
75,123,"ThreeLinesControl",0,0,0.1,0.0125892541179417,0,0.312007885000639,-0.00724976174988114,0.006,-0.00371062801932367,-0.154246376811594,0,-0.0666740740740741,-0.149653784219002,0,-0.068170692431562,-0.0719855072463768,0.048,-0.0271260869565217,"Single","Low","controls","low",0.296296296296296,27
75,124,"FarLowNarrow",0.1,0.15,0.2,0.0125892541179417,1,0.447279879999769,-0.00724976174988114,0.006,-0.00371062801932367,-0.0542463768115942,0.048,-0.0186740740740741,0.000346215780998388,0.07,0.00182930756843801,0.0280144927536232,0.091,0.0158739130434783,"DN","Low","narrow","low",0.285714285714286,28
75,125,"FarLowWide",0.03,0.25,0.5,0.0158489319246111,1,0.373353819999465,-0.00399008394321168,0.008,-0.00171062801932367,-0.124246376811594,0.015,-0.0516740740740741,0.100346215780998,0.111,0.042829307568438,0.328014492753623,0.2,0.124873913043478,"DW","Medium","wide","low",0.4,15
75,126,"ThreeLinesControl",0,0,0.1,0.0158489319246111,1,0.48946831899957,-0.00399008394321168,0.008,-0.00171062801932367,-0.154246376811594,0,-0.0666740740740741,-0.149653784219002,0,-0.068170692431562,-0.0719855072463768,0.048,-0.0271260869565217,"Single","Medium","controls","low",0.65625,32
75,127,"Constant",0.1,0.1,0.1,0.0125892541179417,1,0.65547016399978,-0.00724976174988114,0.006,-0.00371062801932367,-0.0542463768115942,0.048,-0.0186740740740741,-0.0496537842190016,0.048,-0.020170692431562,-0.0719855072463768,0.048,-0.0271260869565217,"Constant","Low","controls","high",0.461538461538462,26
75,128,"FarLowWide",0.03,0.25,0.5,0.0125892541179417,0,0.477579471000354,-0.00724976174988114,0.006,-0.00371062801932367,-0.124246376811594,0.015,-0.0516740740740741,0.100346215780998,0.111,0.042829307568438,0.328014492753623,0.2,0.124873913043478,"DW","Low","wide","low",0.142857142857143,7
75,129,"FarHighNarrow",0.2,0.15,0.1,0.01,0,0.512697222000497,-0.00983901586782281,0.005,-0.00471062801932367,0.0457536231884058,0.091,0.0243259259259259,0.000346215780998388,0.07,0.00182930756843801,-0.0719855072463768,0.048,-0.0271260869565217,"IN","Low","narrow","high",0.333333333333333,9
75,130,"FarHighNarrow",0.2,0.15,0.1,0.0125892541179417,1,0.52716987399981,-0.00724976174988114,0.006,-0.00371062801932367,0.0457536231884058,0.091,0.0243259259259259,0.000346215780998388,0.07,0.00182930756843801,-0.0719855072463768,0.048,-0.0271260869565217,"IN","Low","narrow","high",0.352941176470588,17
75,131,"FarHighWide",0.5,0.25,0.03,0.00630957344480193,1,0.81323765200068,-0.0135294424230209,0.003,-0.00671062801932367,0.345753623188406,0.2,0.133325925925926,0.100346215780998,0.111,0.042829307568438,-0.141985507246377,0.015,-0.0601260869565217,"IW","Low","wide","high",0.5,2
75,132,"FarHighWide",0.5,0.25,0.03,0.00501187233627272,1,0.416272033000496,-0.0148271435315501,0.002,-0.00771062801932367,0.345753623188406,0.2,0.133325925925926,0.100346215780998,0.111,0.042829307568438,-0.141985507246377,0.015,-0.0601260869565217,"IW","Low","wide","high",1,1
75,133,"ThreeLinesControl",0,0,0.1,0.0125892541179417,0,0.382716615999016,-0.00724976174988114,0.006,-0.00371062801932367,-0.154246376811594,0,-0.0666740740740741,-0.149653784219002,0,-0.068170692431562,-0.0719855072463768,0.048,-0.0271260869565217,"Single","Low","controls","low",0.296296296296296,27
75,134,"FarHighWide",0.5,0.25,0.03,0.00398107170553497,0,0.73146559000088,-0.0158579441622878,0.002,-0.00771062801932367,0.345753623188406,0.2,0.133325925925926,0.100346215780998,0.111,0.042829307568438,-0.141985507246377,0.015,-0.0601260869565217,"IW","Low","wide","high",0,2
75,135,"FarHighWide",0.5,0.25,0.03,0.00501187233627272,1,0.78581875800046,-0.0148271435315501,0.002,-0.00771062801932367,0.345753623188406,0.2,0.133325925925926,0.100346215780998,0.111,0.042829307568438,-0.141985507246377,0.015,-0.0601260869565217,"IW","Low","wide","high",0.5,2
75,136,"FarHighNarrow",0.2,0.15,0.1,0.01,1,0.50419521600088,-0.00983901586782281,0.005,-0.00471062801932367,0.0457536231884058,0.091,0.0243259259259259,0.000346215780998388,0.07,0.00182930756843801,-0.0719855072463768,0.048,-0.0271260869565217,"IN","Low","narrow","high",0.333333333333333,9
75,137,"ThreeLinesControl",0,0,0.1,0.0158489319246111,1,0.398104693000278,-0.00399008394321168,0.008,-0.00171062801932367,-0.154246376811594,0,-0.0666740740740741,-0.149653784219002,0,-0.068170692431562,-0.0719855072463768,0.048,-0.0271260869565217,"Single","Medium","controls","low",0.65625,32
75,138,"FarHighNarrow",0.2,0.15,0.1,0.00794328234724281,0,0.379328433999035,-0.01189573352058,0.004,-0.00571062801932367,0.0457536231884058,0.091,0.0243259259259259,0.000346215780998388,0.07,0.00182930756843801,-0.0719855072463768,0.048,-0.0271260869565217,"IN","Low","narrow","high",0,3
75,139,"FarLowNarrow",0.1,0.15,0.2,0.01,0,0.24945466400095,-0.00983901586782281,0.005,-0.00471062801932367,-0.0542463768115942,0.048,-0.0186740740740741,0.000346215780998388,0.07,0.00182930756843801,0.0280144927536232,0.091,0.0158739130434783,"DN","Low","narrow","low",0.2,10
75,142,"FarHighNarrow",0.2,0.15,0.1,0.01,0,0.238097049001226,-0.00983901586782281,0.005,-0.00471062801932367,0.0457536231884058,0.091,0.0243259259259259,0.000346215780998388,0.07,0.00182930756843801,-0.0719855072463768,0.048,-0.0271260869565217,"IN","Low","narrow","high",0.333333333333333,9
75,143,"FarLowNarrow",0.1,0.15,0.2,0.0125892541179417,0,0.289935077998962,-0.00724976174988114,0.006,-0.00371062801932367,-0.0542463768115942,0.048,-0.0186740740740741,0.000346215780998388,0.07,0.00182930756843801,0.0280144927536232,0.091,0.0158739130434783,"DN","Low","narrow","low",0.285714285714286,28
75,144,"FarHighNarrow",0.2,0.15,0.1,0.0125892541179417,0,0.34322738300034,-0.00724976174988114,0.006,-0.00371062801932367,0.0457536231884058,0.091,0.0243259259259259,0.000346215780998388,0.07,0.00182930756843801,-0.0719855072463768,0.048,-0.0271260869565217,"IN","Low","narrow","high",0.352941176470588,17
75,145,"FarLowWide",0.03,0.25,0.5,0.0158489319246111,0,0.346389260999786,-0.00399008394321168,0.008,-0.00171062801932367,-0.124246376811594,0.015,-0.0516740740740741,0.100346215780998,0.111,0.042829307568438,0.328014492753623,0.2,0.124873913043478,"DW","Medium","wide","low",0.4,15
75,146,"FarHighNarrow",0.2,0.15,0.1,0.0158489319246111,1,0.432535504000043,-0.00399008394321168,0.008,-0.00171062801932367,0.0457536231884058,0.091,0.0243259259259259,0.000346215780998388,0.07,0.00182930756843801,-0.0719855072463768,0.048,-0.0271260869565217,"IN","Medium","narrow","high",0.52,25
75,147,"Constant",0.1,0.1,0.1,0.01,0,0.63873235400024,-0.00983901586782281,0.005,-0.00471062801932367,-0.0542463768115942,0.048,-0.0186740740740741,-0.0496537842190016,0.048,-0.020170692431562,-0.0719855072463768,0.048,-0.0271260869565217,"Constant","Low","controls","high",0.454545454545455,22
75,148,"FarLowNarrow",0.1,0.15,0.2,0.0158489319246111,0,0.369616880001558,-0.00399008394321168,0.008,-0.00171062801932367,-0.0542463768115942,0.048,-0.0186740740740741,0.000346215780998388,0.07,0.00182930756843801,0.0280144927536232,0.091,0.0158739130434783,"DN","Medium","narrow","low",0.606060606060606,33
75,149,"Constant",0.1,0.1,0.1,0.0125892541179417,0,0.247891547000108,-0.00724976174988114,0.006,-0.00371062801932367,-0.0542463768115942,0.048,-0.0186740740740741,-0.0496537842190016,0.048,-0.020170692431562,-0.0719855072463768,0.048,-0.0271260869565217,"Constant","Low","controls","high",0.461538461538462,26
75,150,"FarLowWide",0.03,0.25,0.5,0.0199526231496888,0,0.9821125819999,0.000113607281865984,0.01,0.000289371980676328,-0.124246376811594,0.015,-0.0516740740740741,0.100346215780998,0.111,0.042829307568438,0.328014492753623,0.2,0.124873913043478,"DW","Medium","wide","low",0.294117647058824,34
75,152,"FarLowWide",0.03,0.25,0.5,0.0251188643150958,1,0.480882838999605,0.00527984844727299,0.012,0.00228937198067633,-0.124246376811594,0.015,-0.0516740740740741,0.100346215780998,0.111,0.042829307568438,0.328014492753623,0.2,0.124873913043478,"DW","High","wide","low",0.833333333333333,24
75,153,"FarLowNarrow",0.1,0.15,0.2,0.0199526231496888,1,0.455453427999601,0.000113607281865984,0.01,0.000289371980676328,-0.0542463768115942,0.048,-0.0186740740740741,0.000346215780998388,0.07,0.00182930756843801,0.0280144927536232,0.091,0.0158739130434783,"DN","Medium","narrow","low",0.590909090909091,22
75,154,"ThreeLinesControl",0,0,0.1,0.0158489319246111,0,0.49339778600006,-0.00399008394321168,0.008,-0.00171062801932367,-0.154246376811594,0,-0.0666740740740741,-0.149653784219002,0,-0.068170692431562,-0.0719855072463768,0.048,-0.0271260869565217,"Single","Medium","controls","low",0.65625,32
75,155,"FarHighNarrow",0.2,0.15,0.1,0.0158489319246111,1,0.387961771999471,-0.00399008394321168,0.008,-0.00171062801932367,0.0457536231884058,0.091,0.0243259259259259,0.000346215780998388,0.07,0.00182930756843801,-0.0719855072463768,0.048,-0.0271260869565217,"IN","Medium","narrow","high",0.52,25
75,156,"ThreeLinesControl",0,0,0.1,0.0199526231496888,1,0.258025827000893,0.000113607281865984,0.01,0.000289371980676328,-0.154246376811594,0,-0.0666740740740741,-0.149653784219002,0,-0.068170692431562,-0.0719855072463768,0.048,-0.0271260869565217,"Single","Medium","controls","low",0.6875,16
75,157,"FarLowNarrow",0.1,0.15,0.2,0.0158489319246111,0,0.449201213999913,-0.00399008394321168,0.008,-0.00171062801932367,-0.0542463768115942,0.048,-0.0186740740740741,0.000346215780998388,0.07,0.00182930756843801,0.0280144927536232,0.091,0.0158739130434783,"DN","Medium","narrow","low",0.606060606060606,33
75,158,"FarLowNarrow",0.1,0.15,0.2,0.0199526231496888,0,0.311507934000474,0.000113607281865984,0.01,0.000289371980676328,-0.0542463768115942,0.048,-0.0186740740740741,0.000346215780998388,0.07,0.00182930756843801,0.0280144927536232,0.091,0.0158739130434783,"DN","Medium","narrow","low",0.590909090909091,22
75,159,"FarLowNarrow",0.1,0.15,0.2,0.0251188643150958,0,0.283319176000077,0.00527984844727299,0.012,0.00228937198067633,-0.0542463768115942,0.048,-0.0186740740740741,0.000346215780998388,0.07,0.00182930756843801,0.0280144927536232,0.091,0.0158739130434783,"DN","High","narrow","low",0.666666666666667,9
75,160,"ThreeLinesControl",0,0,0.1,0.0158489319246111,1,0.433561089999785,-0.00399008394321168,0.008,-0.00171062801932367,-0.154246376811594,0,-0.0666740740740741,-0.149653784219002,0,-0.068170692431562,-0.0719855072463768,0.048,-0.0271260869565217,"Single","Medium","controls","low",0.65625,32
75,161,"FarLowWide",0.03,0.25,0.5,0.0199526231496888,1,0.534957759999088,0.000113607281865984,0.01,0.000289371980676328,-0.124246376811594,0.015,-0.0516740740740741,0.100346215780998,0.111,0.042829307568438,0.328014492753623,0.2,0.124873913043478,"DW","Medium","wide","low",0.294117647058824,34
75,162,"FarHighNarrow",0.2,0.15,0.1,0.0125892541179417,1,0.914927285999511,-0.00724976174988114,0.006,-0.00371062801932367,0.0457536231884058,0.091,0.0243259259259259,0.000346215780998388,0.07,0.00182930756843801,-0.0719855072463768,0.048,-0.0271260869565217,"IN","Low","narrow","high",0.352941176470588,17
75,163,"FarLowWide",0.03,0.25,0.5,0.0158489319246111,0,0.279922616000476,-0.00399008394321168,0.008,-0.00171062801932367,-0.124246376811594,0.015,-0.0516740740740741,0.100346215780998,0.111,0.042829307568438,0.328014492753623,0.2,0.124873913043478,"DW","Medium","wide","low",0.4,15
75,164,"FarLowWide",0.03,0.25,0.5,0.0199526231496888,0,0.555306856998868,0.000113607281865984,0.01,0.000289371980676328,-0.124246376811594,0.015,-0.0516740740740741,0.100346215780998,0.111,0.042829307568438,0.328014492753623,0.2,0.124873913043478,"DW","Medium","wide","low",0.294117647058824,34
75,165,"Constant",0.1,0.1,0.1,0.0158489319246111,1,0.498285544999817,-0.00399008394321168,0.008,-0.00171062801932367,-0.0542463768115942,0.048,-0.0186740740740741,-0.0496537842190016,0.048,-0.020170692431562,-0.0719855072463768,0.048,-0.0271260869565217,"Constant","Medium","controls","high",0.75,20
75,166,"ThreeLinesControl",0,0,0.1,0.0125892541179417,1,0.471482636001383,-0.00724976174988114,0.006,-0.00371062801932367,-0.154246376811594,0,-0.0666740740740741,-0.149653784219002,0,-0.068170692431562,-0.0719855072463768,0.048,-0.0271260869565217,"Single","Low","controls","low",0.296296296296296,27
75,167,"Constant",0.1,0.1,0.1,0.0125892541179417,1,0.333854458000133,-0.00724976174988114,0.006,-0.00371062801932367,-0.0542463768115942,0.048,-0.0186740740740741,-0.0496537842190016,0.048,-0.020170692431562,-0.0719855072463768,0.048,-0.0271260869565217,"Constant","Low","controls","high",0.461538461538462,26
75,168,"FarLowNarrow",0.1,0.15,0.2,0.0316227766016838,1,0.459666524999193,0.011783760733861,0.016,0.00628937198067633,-0.0542463768115942,0.048,-0.0186740740740741,0.000346215780998388,0.07,0.00182930756843801,0.0280144927536232,0.091,0.0158739130434783,"DN","High","narrow","low",1,5
75,169,"ThreeLinesControl",0,0,0.1,0.01,1,0.665946772000098,-0.00983901586782281,0.005,-0.00471062801932367,-0.154246376811594,0,-0.0666740740740741,-0.149653784219002,0,-0.068170692431562,-0.0719855072463768,0.048,-0.0271260869565217,"Single","Low","controls","low",0.2,10
75,170,"FarHighWide",0.5,0.25,0.03,0.00398107170553497,0,0.735984551000001,-0.0158579441622878,0.002,-0.00771062801932367,0.345753623188406,0.2,0.133325925925926,0.100346215780998,0.111,0.042829307568438,-0.141985507246377,0.015,-0.0601260869565217,"IW","Low","wide","high",0,2
75,171,"Constant",0.1,0.1,0.1,0.01,0,1.04516465400047,-0.00983901586782281,0.005,-0.00471062801932367,-0.0542463768115942,0.048,-0.0186740740740741,-0.0496537842190016,0.048,-0.020170692431562,-0.0719855072463768,0.048,-0.0271260869565217,"Constant","Low","controls","high",0.454545454545455,22
75,172,"ThreeLinesControl",0,0,0.1,0.00794328234724281,0,0.867429520001679,-0.01189573352058,0.004,-0.00571062801932367,-0.154246376811594,0,-0.0666740740740741,-0.149653784219002,0,-0.068170692431562,-0.0719855072463768,0.048,-0.0271260869565217,"Single","Low","controls","low",0,2
75,173,"Constant",0.1,0.1,0.1,0.0125892541179417,0,0.803042788000312,-0.00724976174988114,0.006,-0.00371062801932367,-0.0542463768115942,0.048,-0.0186740740740741,-0.0496537842190016,0.048,-0.020170692431562,-0.0719855072463768,0.048,-0.0271260869565217,"Constant","Low","controls","high",0.461538461538462,26
75,174,"FarLowWide",0.03,0.25,0.5,0.0251188643150958,1,0.864787157999672,0.00527984844727299,0.012,0.00228937198067633,-0.124246376811594,0.015,-0.0516740740740741,0.100346215780998,0.111,0.042829307568438,0.328014492753623,0.2,0.124873913043478,"DW","High","wide","low",0.833333333333333,24
75,175,"ThreeLinesControl",0,0,0.1,0.01,0,0.651939383000354,-0.00983901586782281,0.005,-0.00471062801932367,-0.154246376811594,0,-0.0666740740740741,-0.149653784219002,0,-0.068170692431562,-0.0719855072463768,0.048,-0.0271260869565217,"Single","Low","controls","low",0.2,10
75,176,"FarLowNarrow",0.1,0.15,0.2,0.0251188643150958,1,0.633860173000357,0.00527984844727299,0.012,0.00228937198067633,-0.0542463768115942,0.048,-0.0186740740740741,0.000346215780998388,0.07,0.00182930756843801,0.0280144927536232,0.091,0.0158739130434783,"DN","High","narrow","low",1,4
75,177,"FarHighWide",0.5,0.25,0.03,0.00501187233627272,0,1.2956957639999,-0.0148271435315501,0.002,-0.00771062801932367,0.345753623188406,0.2,0.133325925925926,0.100346215780998,0.111,0.042829307568438,-0.141985507246377,0.015,-0.0601260869565217,"IW","Low","wide","high",0.5,2
75,179,"FarLowNarrow",0.1,0.15,0.2,0.0199526231496888,0,1.14519490099883,0.000113607281865984,0.01,0.000289371980676328,-0.0542463768115942,0.048,-0.0186740740740741,0.000346215780998388,0.07,0.00182930756843801,0.0280144927536232,0.091,0.0158739130434783,"DN","Medium","narrow","low",0.590909090909091,22
75,180,"FarHighWide",0.5,0.25,0.03,0.00630957344480193,0,0.509332969000752,-0.0135294424230209,0.003,-0.00671062801932367,0.345753623188406,0.2,0.133325925925926,0.100346215780998,0.111,0.042829307568438,-0.141985507246377,0.015,-0.0601260869565217,"IW","Low","wide","high",0,1
75,181,"FarHighWide",0.5,0.25,0.03,0.00794328234724281,0,0.435353097000188,-0.01189573352058,0.004,-0.00571062801932367,0.345753623188406,0.2,0.133325925925926,0.100346215780998,0.111,0.042829307568438,-0.141985507246377,0.015,-0.0601260869565217,"IW","Low","wide","high",0,6
75,182,"FarHighWide",0.5,0.25,0.03,0.01,0,0.456570438998824,-0.00983901586782281,0.005,-0.00471062801932367,0.345753623188406,0.2,0.133325925925926,0.100346215780998,0.111,0.042829307568438,-0.141985507246377,0.015,-0.0601260869565217,"IW","Low","wide","high",0.357142857142857,14
75,183,"ThreeLinesControl",0,0,0.1,0.0158489319246111,1,0.47103527299987,-0.00399008394321168,0.008,-0.00171062801932367,-0.154246376811594,0,-0.0666740740740741,-0.149653784219002,0,-0.068170692431562,-0.0719855072463768,0.048,-0.0271260869565217,"Single","Medium","controls","low",0.65625,32
75,184,"FarHighWide",0.5,0.25,0.03,0.0125892541179417,0,0.589263013000163,-0.00724976174988114,0.006,-0.00371062801932367,0.345753623188406,0.2,0.133325925925926,0.100346215780998,0.111,0.042829307568438,-0.141985507246377,0.015,-0.0601260869565217,"IW","Medium","wide","high",0.380952380952381,21
75,185,"FarLowWide",0.03,0.25,0.5,0.0199526231496888,1,0.827333040000667,0.000113607281865984,0.01,0.000289371980676328,-0.124246376811594,0.015,-0.0516740740740741,0.100346215780998,0.111,0.042829307568438,0.328014492753623,0.2,0.124873913043478,"DW","Medium","wide","low",0.294117647058824,34
75,187,"FarHighWide",0.5,0.25,0.03,0.0158489319246111,1,0.158713910001097,-0.00399008394321167,0.008,-0.00171062801932367,0.345753623188406,0.2,0.133325925925926,0.100346215780998,0.111,0.042829307568438,-0.141985507246377,0.015,-0.0601260869565217,"IW","Medium","wide","high",0.631578947368421,19
75,188,"FarLowWide",0.03,0.25,0.5,0.0199526231496888,0,0.46037069599879,0.000113607281865984,0.01,0.000289371980676328,-0.124246376811594,0.015,-0.0516740740740741,0.100346215780998,0.111,0.042829307568438,0.328014492753623,0.2,0.124873913043478,"DW","Medium","wide","low",0.294117647058824,34
75,189,"FarHighNarrow",0.2,0.15,0.1,0.01,0,0.322991729000933,-0.00983901586782281,0.005,-0.00471062801932367,0.0457536231884058,0.091,0.0243259259259259,0.000346215780998388,0.07,0.00182930756843801,-0.0719855072463768,0.048,-0.0271260869565217,"IN","Low","narrow","high",0.333333333333333,9
75,190,"ThreeLinesControl",0,0,0.1,0.0125892541179417,0,0.362391687998752,-0.00724976174988114,0.006,-0.00371062801932367,-0.154246376811594,0,-0.0666740740740741,-0.149653784219002,0,-0.068170692431562,-0.0719855072463768,0.048,-0.0271260869565217,"Single","Low","controls","low",0.296296296296296,27
75,191,"FarHighWide",0.5,0.25,0.03,0.0125892541179417,1,0.284991527001694,-0.00724976174988114,0.006,-0.00371062801932367,0.345753623188406,0.2,0.133325925925926,0.100346215780998,0.111,0.042829307568438,-0.141985507246377,0.015,-0.0601260869565217,"IW","Medium","wide","high",0.380952380952381,21
75,192,"FarHighWide",0.5,0.25,0.03,0.01,0,0.243109564999031,-0.00983901586782281,0.005,-0.00471062801932367,0.345753623188406,0.2,0.133325925925926,0.100346215780998,0.111,0.042829307568438,-0.141985507246377,0.015,-0.0601260869565217,"IW","Low","wide","high",0.357142857142857,14
75,193,"FarLowNarrow",0.1,0.15,0.2,0.0251188643150958,1,0.441613513999982,0.00527984844727299,0.012,0.00228937198067633,-0.0542463768115942,0.048,-0.0186740740740741,0.000346215780998388,0.07,0.00182930756843801,0.0280144927536232,0.091,0.0158739130434783,"DN","High","narrow","low",0.666666666666667,9
75,194,"FarHighWide",0.5,0.25,0.03,0.0125892541179417,1,0.701051109001128,-0.00724976174988114,0.006,-0.00371062801932367,0.345753623188406,0.2,0.133325925925926,0.100346215780998,0.111,0.042829307568438,-0.141985507246377,0.015,-0.0601260869565217,"IW","Medium","wide","high",0.380952380952381,21
75,195,"FarLowWide",0.03,0.25,0.5,0.0251188643150958,1,0.442867364999984,0.00527984844727299,0.012,0.00228937198067633,-0.124246376811594,0.015,-0.0516740740740741,0.100346215780998,0.111,0.042829307568438,0.328014492753623,0.2,0.124873913043478,"DW","High","wide","low",0.833333333333333,24
75,196,"ThreeLinesControl",0,0,0.1,0.0158489319246111,1,0.343991642001129,-0.00399008394321168,0.008,-0.00171062801932367,-0.154246376811594,0,-0.0666740740740741,-0.149653784219002,0,-0.068170692431562,-0.0719855072463768,0.048,-0.0271260869565217,"Single","Medium","controls","low",0.65625,32
75,197,"Constant",0.1,0.1,0.1,0.0158489319246111,1,0.308154006999757,-0.00399008394321168,0.008,-0.00171062801932367,-0.0542463768115942,0.048,-0.0186740740740741,-0.0496537842190016,0.048,-0.020170692431562,-0.0719855072463768,0.048,-0.0271260869565217,"Constant","Medium","controls","high",0.75,20
75,198,"FarLowWide",0.03,0.25,0.5,0.0199526231496888,0,0.305015293000906,0.000113607281865984,0.01,0.000289371980676328,-0.124246376811594,0.015,-0.0516740740740741,0.100346215780998,0.111,0.042829307568438,0.328014492753623,0.2,0.124873913043478,"DW","Medium","wide","low",0.294117647058824,34
75,199,"ThreeLinesControl",0,0,0.1,0.0125892541179417,0,0.687160284000129,-0.00724976174988114,0.006,-0.00371062801932367,-0.154246376811594,0,-0.0666740740740741,-0.149653784219002,0,-0.068170692431562,-0.0719855072463768,0.048,-0.0271260869565217,"Single","Low","controls","low",0.296296296296296,27
75,200,"FarHighWide",0.5,0.25,0.03,0.01,0,0.509525396999379,-0.00983901586782281,0.005,-0.00471062801932367,0.345753623188406,0.2,0.133325925925926,0.100346215780998,0.111,0.042829307568438,-0.141985507246377,0.015,-0.0601260869565217,"IW","Low","wide","high",0.357142857142857,14
75,201,"FarLowWide",0.03,0.25,0.5,0.0251188643150958,1,0.475563656000304,0.00527984844727299,0.012,0.00228937198067633,-0.124246376811594,0.015,-0.0516740740740741,0.100346215780998,0.111,0.042829307568438,0.328014492753623,0.2,0.124873913043478,"DW","High","wide","low",0.833333333333333,24
75,202,"FarLowWide",0.03,0.25,0.5,0.0199526231496888,1,0.537889613000516,0.000113607281865984,0.01,0.000289371980676328,-0.124246376811594,0.015,-0.0516740740740741,0.100346215780998,0.111,0.042829307568438,0.328014492753623,0.2,0.124873913043478,"DW","Medium","wide","low",0.294117647058824,34
75,204,"FarLowWide",0.03,0.25,0.5,0.0158489319246111,0,0.214039221000348,-0.00399008394321168,0.008,-0.00171062801932367,-0.124246376811594,0.015,-0.0516740740740741,0.100346215780998,0.111,0.042829307568438,0.328014492753623,0.2,0.124873913043478,"DW","Medium","wide","low",0.4,15
75,206,"Constant",0.1,0.1,0.1,0.0125892541179417,1,0.282863172000361,-0.00724976174988114,0.006,-0.00371062801932367,-0.0542463768115942,0.048,-0.0186740740740741,-0.0496537842190016,0.048,-0.020170692431562,-0.0719855072463768,0.048,-0.0271260869565217,"Constant","Low","controls","high",0.461538461538462,26
75,208,"FarHighNarrow",0.2,0.15,0.1,0.0125892541179417,0,0.308777818001545,-0.00724976174988114,0.006,-0.00371062801932367,0.0457536231884058,0.091,0.0243259259259259,0.000346215780998388,0.07,0.00182930756843801,-0.0719855072463768,0.048,-0.0271260869565217,"IN","Low","narrow","high",0.352941176470588,17
75,209,"FarHighNarrow",0.2,0.15,0.1,0.0158489319246111,0,0.235256268999365,-0.00399008394321168,0.008,-0.00171062801932367,0.0457536231884058,0.091,0.0243259259259259,0.000346215780998388,0.07,0.00182930756843801,-0.0719855072463768,0.048,-0.0271260869565217,"IN","Medium","narrow","high",0.52,25
75,210,"FarLowWide",0.03,0.25,0.5,0.0199526231496888,0,0.486148216999936,0.000113607281865984,0.01,0.000289371980676328,-0.124246376811594,0.015,-0.0516740740740741,0.100346215780998,0.111,0.042829307568438,0.328014492753623,0.2,0.124873913043478,"DW","Medium","wide","low",0.294117647058824,34
75,211,"FarHighNarrow",0.2,0.15,0.1,0.0199526231496888,1,0.460029912999744,0.000113607281865984,0.01,0.000289371980676328,0.0457536231884058,0.091,0.0243259259259259,0.000346215780998388,0.07,0.00182930756843801,-0.0719855072463768,0.048,-0.0271260869565217,"IN","Medium","narrow","high",0.636363636363636,22
75,212,"FarLowNarrow",0.1,0.15,0.2,0.0199526231496888,1,0.433371000999614,0.000113607281865984,0.01,0.000289371980676328,-0.0542463768115942,0.048,-0.0186740740740741,0.000346215780998388,0.07,0.00182930756843801,0.0280144927536232,0.091,0.0158739130434783,"DN","Medium","narrow","low",0.590909090909091,22
75,214,"FarLowWide",0.03,0.25,0.5,0.0251188643150958,1,0.563682504000099,0.00527984844727299,0.012,0.00228937198067633,-0.124246376811594,0.015,-0.0516740740740741,0.100346215780998,0.111,0.042829307568438,0.328014492753623,0.2,0.124873913043478,"DW","High","wide","low",0.833333333333333,24
75,215,"FarHighWide",0.5,0.25,0.03,0.0125892541179417,0,0.513686846999917,-0.00724976174988114,0.006,-0.00371062801932367,0.345753623188406,0.2,0.133325925925926,0.100346215780998,0.111,0.042829307568438,-0.141985507246377,0.015,-0.0601260869565217,"IW","Medium","wide","high",0.380952380952381,21
75,216,"ThreeLinesControl",0,0,0.1,0.0158489319246111,1,0.695811923000292,-0.00399008394321168,0.008,-0.00171062801932367,-0.154246376811594,0,-0.0666740740740741,-0.149653784219002,0,-0.068170692431562,-0.0719855072463768,0.048,-0.0271260869565217,"Single","Medium","controls","low",0.65625,32
75,218,"Constant",0.1,0.1,0.1,0.01,0,0.532128476999787,-0.00983901586782281,0.005,-0.00471062801932367,-0.0542463768115942,0.048,-0.0186740740740741,-0.0496537842190016,0.048,-0.020170692431562,-0.0719855072463768,0.048,-0.0271260869565217,"Constant","Low","controls","high",0.454545454545455,22
75,219,"FarHighWide",0.5,0.25,0.03,0.0158489319246111,0,0.721539116999338,-0.00399008394321167,0.008,-0.00171062801932367,0.345753623188406,0.2,0.133325925925926,0.100346215780998,0.111,0.042829307568438,-0.141985507246377,0.015,-0.0601260869565217,"IW","Medium","wide","high",0.631578947368421,19
75,220,"ThreeLinesControl",0,0,0.1,0.0125892541179417,0,0.647142396999698,-0.00724976174988114,0.006,-0.00371062801932367,-0.154246376811594,0,-0.0666740740740741,-0.149653784219002,0,-0.068170692431562,-0.0719855072463768,0.048,-0.0271260869565217,"Single","Low","controls","low",0.296296296296296,27
75,221,"ThreeLinesControl",0,0,0.1,0.0158489319246111,1,0.396456148999278,-0.00399008394321168,0.008,-0.00171062801932367,-0.154246376811594,0,-0.0666740740740741,-0.149653784219002,0,-0.068170692431562,-0.0719855072463768,0.048,-0.0271260869565217,"Single","Medium","controls","low",0.65625,32
75,222,"FarLowNarrow",0.1,0.15,0.2,0.0158489319246111,1,0.650694076000946,-0.00399008394321168,0.008,-0.00171062801932367,-0.0542463768115942,0.048,-0.0186740740740741,0.000346215780998388,0.07,0.00182930756843801,0.0280144927536232,0.091,0.0158739130434783,"DN","Medium","narrow","low",0.606060606060606,33
75,223,"ThreeLinesControl",0,0,0.1,0.0125892541179417,1,0.594305996000912,-0.00724976174988114,0.006,-0.00371062801932367,-0.154246376811594,0,-0.0666740740740741,-0.149653784219002,0,-0.068170692431562,-0.0719855072463768,0.048,-0.0271260869565217,"Single","Low","controls","low",0.296296296296296,27
75,224,"FarHighNarrow",0.2,0.15,0.1,0.0158489319246111,1,0.693221459998313,-0.00399008394321168,0.008,-0.00171062801932367,0.0457536231884058,0.091,0.0243259259259259,0.000346215780998388,0.07,0.00182930756843801,-0.0719855072463768,0.048,-0.0271260869565217,"IN","Medium","narrow","high",0.52,25
75,225,"ThreeLinesControl",0,0,0.1,0.01,0,0.643134465999537,-0.00983901586782281,0.005,-0.00471062801932367,-0.154246376811594,0,-0.0666740740740741,-0.149653784219002,0,-0.068170692431562,-0.0719855072463768,0.048,-0.0271260869565217,"Single","Low","controls","low",0.2,10
75,226,"Constant",0.1,0.1,0.1,0.0125892541179417,1,0.889535825001076,-0.00724976174988114,0.006,-0.00371062801932367,-0.0542463768115942,0.048,-0.0186740740740741,-0.0496537842190016,0.048,-0.020170692431562,-0.0719855072463768,0.048,-0.0271260869565217,"Constant","Low","controls","high",0.461538461538462,26
75,227,"FarLowNarrow",0.1,0.15,0.2,0.0125892541179417,0,0.724423540001226,-0.00724976174988114,0.006,-0.00371062801932367,-0.0542463768115942,0.048,-0.0186740740740741,0.000346215780998388,0.07,0.00182930756843801,0.0280144927536232,0.091,0.0158739130434783,"DN","Low","narrow","low",0.285714285714286,28
75,228,"FarHighWide",0.5,0.25,0.03,0.0199526231496888,1,0.96165312300036,0.000113607281865987,0.01,0.000289371980676328,0.345753623188406,0.2,0.133325925925926,0.100346215780998,0.111,0.042829307568438,-0.141985507246377,0.015,-0.0601260869565217,"IW","High","wide","high",0.7,10
75,229,"FarHighNarrow",0.2,0.15,0.1,0.0125892541179417,1,0.566866184999526,-0.00724976174988114,0.006,-0.00371062801932367,0.0457536231884058,0.091,0.0243259259259259,0.000346215780998388,0.07,0.00182930756843801,-0.0719855072463768,0.048,-0.0271260869565217,"IN","Low","narrow","high",0.352941176470588,17
75,230,"FarLowWide",0.03,0.25,0.5,0.0199526231496888,0,0.971848910001427,0.000113607281865984,0.01,0.000289371980676328,-0.124246376811594,0.015,-0.0516740740740741,0.100346215780998,0.111,0.042829307568438,0.328014492753623,0.2,0.124873913043478,"DW","Medium","wide","low",0.294117647058824,34
75,231,"ThreeLinesControl",0,0,0.1,0.0125892541179417,0,0.570149095001398,-0.00724976174988114,0.006,-0.00371062801932367,-0.154246376811594,0,-0.0666740740740741,-0.149653784219002,0,-0.068170692431562,-0.0719855072463768,0.048,-0.0271260869565217,"Single","Low","controls","low",0.296296296296296,27
75,232,"Constant",0.1,0.1,0.1,0.01,0,0.472046922001027,-0.00983901586782281,0.005,-0.00471062801932367,-0.0542463768115942,0.048,-0.0186740740740741,-0.0496537842190016,0.048,-0.020170692431562,-0.0719855072463768,0.048,-0.0271260869565217,"Constant","Low","controls","high",0.454545454545455,22
75,233,"FarLowNarrow",0.1,0.15,0.2,0.0158489319246111,1,0.518627561999892,-0.00399008394321168,0.008,-0.00171062801932367,-0.0542463768115942,0.048,-0.0186740740740741,0.000346215780998388,0.07,0.00182930756843801,0.0280144927536232,0.091,0.0158739130434783,"DN","Medium","narrow","low",0.606060606060606,33
75,234,"FarLowNarrow",0.1,0.15,0.2,0.0125892541179417,0,0.668547945000682,-0.00724976174988114,0.006,-0.00371062801932367,-0.0542463768115942,0.048,-0.0186740740740741,0.000346215780998388,0.07,0.00182930756843801,0.0280144927536232,0.091,0.0158739130434783,"DN","Low","narrow","low",0.285714285714286,28
75,235,"FarHighNarrow",0.2,0.15,0.1,0.01,0,0.62686980700164,-0.00983901586782281,0.005,-0.00471062801932367,0.0457536231884058,0.091,0.0243259259259259,0.000346215780998388,0.07,0.00182930756843801,-0.0719855072463768,0.048,-0.0271260869565217,"IN","Low","narrow","high",0.333333333333333,9
75,236,"Constant",0.1,0.1,0.1,0.0125892541179417,1,0.368552940999507,-0.00724976174988114,0.006,-0.00371062801932367,-0.0542463768115942,0.048,-0.0186740740740741,-0.0496537842190016,0.048,-0.020170692431562,-0.0719855072463768,0.048,-0.0271260869565217,"Constant","Low","controls","high",0.461538461538462,26
75,238,"Constant",0.1,0.1,0.1,0.01,1,0.724392378999255,-0.00983901586782281,0.005,-0.00471062801932367,-0.0542463768115942,0.048,-0.0186740740740741,-0.0496537842190016,0.048,-0.020170692431562,-0.0719855072463768,0.048,-0.0271260869565217,"Constant","Low","controls","high",0.454545454545455,22
75,239,"FarHighWide",0.5,0.25,0.03,0.0158489319246111,1,0.339693497999178,-0.00399008394321167,0.008,-0.00171062801932367,0.345753623188406,0.2,0.133325925925926,0.100346215780998,0.111,0.042829307568438,-0.141985507246377,0.015,-0.0601260869565217,"IW","Medium","wide","high",0.631578947368421,19
75,240,"ThreeLinesControl",0,0,0.1,0.0158489319246111,1,1.18666890200075,-0.00399008394321168,0.008,-0.00171062801932367,-0.154246376811594,0,-0.0666740740740741,-0.149653784219002,0,-0.068170692431562,-0.0719855072463768,0.048,-0.0271260869565217,"Single","Medium","controls","low",0.65625,32
75,241,"FarLowNarrow",0.1,0.15,0.2,0.0158489319246111,0,0.44072288300049,-0.00399008394321168,0.008,-0.00171062801932367,-0.0542463768115942,0.048,-0.0186740740740741,0.000346215780998388,0.07,0.00182930756843801,0.0280144927536232,0.091,0.0158739130434783,"DN","Medium","narrow","low",0.606060606060606,33
75,242,"Constant",0.1,0.1,0.1,0.00794328234724281,0,0.501821945999836,-0.01189573352058,0.004,-0.00571062801932367,-0.0542463768115942,0.048,-0.0186740740740741,-0.0496537842190016,0.048,-0.020170692431562,-0.0719855072463768,0.048,-0.0271260869565217,"Constant","Low","controls","high",0.285714285714286,14
75,243,"Constant",0.1,0.1,0.1,0.01,1,0.340457276999587,-0.00983901586782281,0.005,-0.00471062801932367,-0.0542463768115942,0.048,-0.0186740740740741,-0.0496537842190016,0.048,-0.020170692431562,-0.0719855072463768,0.048,-0.0271260869565217,"Constant","Low","controls","high",0.454545454545455,22
75,244,"ThreeLinesControl",0,0,0.1,0.0125892541179417,0,0.722501401000045,-0.00724976174988114,0.006,-0.00371062801932367,-0.154246376811594,0,-0.0666740740740741,-0.149653784219002,0,-0.068170692431562,-0.0719855072463768,0.048,-0.0271260869565217,"Single","Low","controls","low",0.296296296296296,27
75,245,"FarHighNarrow",0.2,0.15,0.1,0.0125892541179417,0,0.616268338999362,-0.00724976174988114,0.006,-0.00371062801932367,0.0457536231884058,0.091,0.0243259259259259,0.000346215780998388,0.07,0.00182930756843801,-0.0719855072463768,0.048,-0.0271260869565217,"IN","Low","narrow","high",0.352941176470588,17
75,246,"ThreeLinesControl",0,0,0.1,0.0158489319246111,1,0.758783560999291,-0.00399008394321168,0.008,-0.00171062801932367,-0.154246376811594,0,-0.0666740740740741,-0.149653784219002,0,-0.068170692431562,-0.0719855072463768,0.048,-0.0271260869565217,"Single","Medium","controls","low",0.65625,32
75,248,"FarLowNarrow",0.1,0.15,0.2,0.0199526231496888,1,0.70397163799862,0.000113607281865984,0.01,0.000289371980676328,-0.0542463768115942,0.048,-0.0186740740740741,0.000346215780998388,0.07,0.00182930756843801,0.0280144927536232,0.091,0.0158739130434783,"DN","Medium","narrow","low",0.590909090909091,22
75,249,"FarLowWide",0.03,0.25,0.5,0.0251188643150958,1,0.534018710000964,0.00527984844727299,0.012,0.00228937198067633,-0.124246376811594,0.015,-0.0516740740740741,0.100346215780998,0.111,0.042829307568438,0.328014492753623,0.2,0.124873913043478,"DW","High","wide","low",0.833333333333333,24
75,251,"FarLowNarrow",0.1,0.15,0.2,0.0158489319246111,0,0.631257880999328,-0.00399008394321168,0.008,-0.00171062801932367,-0.0542463768115942,0.048,-0.0186740740740741,0.000346215780998388,0.07,0.00182930756843801,0.0280144927536232,0.091,0.0158739130434783,"DN","Medium","narrow","low",0.606060606060606,33
75,252,"ThreeLinesControl",0,0,0.1,0.0125892541179417,1,0.357584961000612,-0.00724976174988114,0.006,-0.00371062801932367,-0.154246376811594,0,-0.0666740740740741,-0.149653784219002,0,-0.068170692431562,-0.0719855072463768,0.048,-0.0271260869565217,"Single","Low","controls","low",0.296296296296296,27
75,253,"FarLowWide",0.03,0.25,0.5,0.0199526231496888,0,0.499626530001478,0.000113607281865984,0.01,0.000289371980676328,-0.124246376811594,0.015,-0.0516740740740741,0.100346215780998,0.111,0.042829307568438,0.328014492753623,0.2,0.124873913043478,"DW","Medium","wide","low",0.294117647058824,34
75,254,"FarLowNarrow",0.1,0.15,0.2,0.0199526231496888,1,0.599591641999723,0.000113607281865984,0.01,0.000289371980676328,-0.0542463768115942,0.048,-0.0186740740740741,0.000346215780998388,0.07,0.00182930756843801,0.0280144927536232,0.091,0.0158739130434783,"DN","Medium","narrow","low",0.590909090909091,22
75,255,"Constant",0.1,0.1,0.1,0.00794328234724281,0,0.421840462000546,-0.01189573352058,0.004,-0.00571062801932367,-0.0542463768115942,0.048,-0.0186740740740741,-0.0496537842190016,0.048,-0.020170692431562,-0.0719855072463768,0.048,-0.0271260869565217,"Constant","Low","controls","high",0.285714285714286,14
75,256,"FarHighWide",0.5,0.25,0.03,0.0125892541179417,0,0.539984409999306,-0.00724976174988114,0.006,-0.00371062801932367,0.345753623188406,0.2,0.133325925925926,0.100346215780998,0.111,0.042829307568438,-0.141985507246377,0.015,-0.0601260869565217,"IW","Medium","wide","high",0.380952380952381,21
75,257,"FarHighWide",0.5,0.25,0.03,0.0158489319246111,0,0.433075299999473,-0.00399008394321167,0.008,-0.00171062801932367,0.345753623188406,0.2,0.133325925925926,0.100346215780998,0.111,0.042829307568438,-0.141985507246377,0.015,-0.0601260869565217,"IW","Medium","wide","high",0.631578947368421,19
75,258,"FarLowWide",0.03,0.25,0.5,0.0251188643150958,1,0.311373849999654,0.00527984844727299,0.012,0.00228937198067633,-0.124246376811594,0.015,-0.0516740740740741,0.100346215780998,0.111,0.042829307568438,0.328014492753623,0.2,0.124873913043478,"DW","High","wide","low",0.833333333333333,24
75,259,"ThreeLinesControl",0,0,0.1,0.01,0,0.470656851000967,-0.00983901586782281,0.005,-0.00471062801932367,-0.154246376811594,0,-0.0666740740740741,-0.149653784219002,0,-0.068170692431562,-0.0719855072463768,0.048,-0.0271260869565217,"Single","Low","controls","low",0.2,10
75,260,"ThreeLinesControl",0,0,0.1,0.0125892541179417,0,0.396870184000363,-0.00724976174988114,0.006,-0.00371062801932367,-0.154246376811594,0,-0.0666740740740741,-0.149653784219002,0,-0.068170692431562,-0.0719855072463768,0.048,-0.0271260869565217,"Single","Low","controls","low",0.296296296296296,27
75,261,"FarLowNarrow",0.1,0.15,0.2,0.0158489319246111,1,0.402616995999779,-0.00399008394321168,0.008,-0.00171062801932367,-0.0542463768115942,0.048,-0.0186740740740741,0.000346215780998388,0.07,0.00182930756843801,0.0280144927536232,0.091,0.0158739130434783,"DN","Medium","narrow","low",0.606060606060606,33
75,262,"ThreeLinesControl",0,0,0.1,0.0158489319246111,0,0.423949759000607,-0.00399008394321168,0.008,-0.00171062801932367,-0.154246376811594,0,-0.0666740740740741,-0.149653784219002,0,-0.068170692431562,-0.0719855072463768,0.048,-0.0271260869565217,"Single","Medium","controls","low",0.65625,32
75,263,"Constant",0.1,0.1,0.1,0.01,1,1.15815465300147,-0.00983901586782281,0.005,-0.00471062801932367,-0.0542463768115942,0.048,-0.0186740740740741,-0.0496537842190016,0.048,-0.020170692431562,-0.0719855072463768,0.048,-0.0271260869565217,"Constant","Low","controls","high",0.454545454545455,22
75,264,"FarHighWide",0.5,0.25,0.03,0.0199526231496888,1,0.539278530999582,0.000113607281865987,0.01,0.000289371980676328,0.345753623188406,0.2,0.133325925925926,0.100346215780998,0.111,0.042829307568438,-0.141985507246377,0.015,-0.0601260869565217,"IW","High","wide","high",0.7,10
75,265,"FarHighWide",0.5,0.25,0.03,0.0158489319246111,1,0.359280906999629,-0.00399008394321167,0.008,-0.00171062801932367,0.345753623188406,0.2,0.133325925925926,0.100346215780998,0.111,0.042829307568438,-0.141985507246377,0.015,-0.0601260869565217,"IW","Medium","wide","high",0.631578947368421,19
75,266,"FarLowWide",0.03,0.25,0.5,0.0199526231496888,0,0.469408545999613,0.000113607281865984,0.01,0.000289371980676328,-0.124246376811594,0.015,-0.0516740740740741,0.100346215780998,0.111,0.042829307568438,0.328014492753623,0.2,0.124873913043478,"DW","Medium","wide","low",0.294117647058824,34
75,270,"Constant",0.1,0.1,0.1,0.00794328234724281,0,0.601035001000128,-0.01189573352058,0.004,-0.00571062801932367,-0.0542463768115942,0.048,-0.0186740740740741,-0.0496537842190016,0.048,-0.020170692431562,-0.0719855072463768,0.048,-0.0271260869565217,"Constant","Low","controls","high",0.285714285714286,14
75,271,"FarLowNarrow",0.1,0.15,0.2,0.0125892541179417,1,0.671287324999867,-0.00724976174988114,0.006,-0.00371062801932367,-0.0542463768115942,0.048,-0.0186740740740741,0.000346215780998388,0.07,0.00182930756843801,0.0280144927536232,0.091,0.0158739130434783,"DN","Low","narrow","low",0.285714285714286,28
75,272,"FarHighNarrow",0.2,0.15,0.1,0.0199526231496888,1,0.429516889998922,0.000113607281865984,0.01,0.000289371980676328,0.0457536231884058,0.091,0.0243259259259259,0.000346215780998388,0.07,0.00182930756843801,-0.0719855072463768,0.048,-0.0271260869565217,"IN","Medium","narrow","high",0.636363636363636,22
75,273,"ThreeLinesControl",0,0,0.1,0.0199526231496888,1,0.290442857000016,0.000113607281865984,0.01,0.000289371980676328,-0.154246376811594,0,-0.0666740740740741,-0.149653784219002,0,-0.068170692431562,-0.0719855072463768,0.048,-0.0271260869565217,"Single","Medium","controls","low",0.6875,16
75,275,"FarHighNarrow",0.2,0.15,0.1,0.0158489319246111,0,0.27071812900067,-0.00399008394321168,0.008,-0.00171062801932367,0.0457536231884058,0.091,0.0243259259259259,0.000346215780998388,0.07,0.00182930756843801,-0.0719855072463768,0.048,-0.0271260869565217,"IN","Medium","narrow","high",0.52,25
75,276,"Constant",0.1,0.1,0.1,0.01,0,0.500931018999836,-0.00983901586782281,0.005,-0.00471062801932367,-0.0542463768115942,0.048,-0.0186740740740741,-0.0496537842190016,0.048,-0.020170692431562,-0.0719855072463768,0.048,-0.0271260869565217,"Constant","Low","controls","high",0.454545454545455,22
75,277,"FarLowWide",0.03,0.25,0.5,0.0251188643150958,1,0.276530794000792,0.00527984844727299,0.012,0.00228937198067633,-0.124246376811594,0.015,-0.0516740740740741,0.100346215780998,0.111,0.042829307568438,0.328014492753623,0.2,0.124873913043478,"DW","High","wide","low",0.833333333333333,24
75,278,"FarHighWide",0.5,0.25,0.03,0.0125892541179417,1,0.153326944000582,-0.00724976174988114,0.006,-0.00371062801932367,0.345753623188406,0.2,0.133325925925926,0.100346215780998,0.111,0.042829307568438,-0.141985507246377,0.015,-0.0601260869565217,"IW","Medium","wide","high",0.380952380952381,21
75,279,"FarHighNarrow",0.2,0.15,0.1,0.0199526231496888,1,0.734202170999197,0.000113607281865984,0.01,0.000289371980676328,0.0457536231884058,0.091,0.0243259259259259,0.000346215780998388,0.07,0.00182930756843801,-0.0719855072463768,0.048,-0.0271260869565217,"IN","Medium","narrow","high",0.636363636363636,22
75,281,"FarHighNarrow",0.2,0.15,0.1,0.0158489319246111,0,0.280849155000396,-0.00399008394321168,0.008,-0.00171062801932367,0.0457536231884058,0.091,0.0243259259259259,0.000346215780998388,0.07,0.00182930756843801,-0.0719855072463768,0.048,-0.0271260869565217,"IN","Medium","narrow","high",0.52,25
75,282,"FarLowNarrow",0.1,0.15,0.2,0.01,0,0.390934381999614,-0.00983901586782281,0.005,-0.00471062801932367,-0.0542463768115942,0.048,-0.0186740740740741,0.000346215780998388,0.07,0.00182930756843801,0.0280144927536232,0.091,0.0158739130434783,"DN","Low","narrow","low",0.2,10
75,283,"ThreeLinesControl",0,0,0.1,0.0158489319246111,0,0.458042749000015,-0.00399008394321168,0.008,-0.00171062801932367,-0.154246376811594,0,-0.0666740740740741,-0.149653784219002,0,-0.068170692431562,-0.0719855072463768,0.048,-0.0271260869565217,"Single","Medium","controls","low",0.65625,32
75,285,"Constant",0.1,0.1,0.1,0.0125892541179417,0,0.574406044999705,-0.00724976174988114,0.006,-0.00371062801932367,-0.0542463768115942,0.048,-0.0186740740740741,-0.0496537842190016,0.048,-0.020170692431562,-0.0719855072463768,0.048,-0.0271260869565217,"Constant","Low","controls","high",0.461538461538462,26
75,286,"FarHighNarrow",0.2,0.15,0.1,0.0199526231496888,0,0.538269160000709,0.000113607281865984,0.01,0.000289371980676328,0.0457536231884058,0.091,0.0243259259259259,0.000346215780998388,0.07,0.00182930756843801,-0.0719855072463768,0.048,-0.0271260869565217,"IN","Medium","narrow","high",0.636363636363636,22
75,287,"FarLowWide",0.03,0.25,0.5,0.0199526231496888,0,0.704348035000294,0.000113607281865984,0.01,0.000289371980676328,-0.124246376811594,0.015,-0.0516740740740741,0.100346215780998,0.111,0.042829307568438,0.328014492753623,0.2,0.124873913043478,"DW","Medium","wide","low",0.294117647058824,34
75,289,"FarLowNarrow",0.1,0.15,0.2,0.0125892541179417,0,0.484733943998435,-0.00724976174988114,0.006,-0.00371062801932367,-0.0542463768115942,0.048,-0.0186740740740741,0.000346215780998388,0.07,0.00182930756843801,0.0280144927536232,0.091,0.0158739130434783,"DN","Low","narrow","low",0.285714285714286,28
75,290,"FarHighNarrow",0.2,0.15,0.1,0.0251188643150958,1,0.522919102000742,0.00527984844727299,0.012,0.00228937198067633,0.0457536231884058,0.091,0.0243259259259259,0.000346215780998388,0.07,0.00182930756843801,-0.0719855072463768,0.048,-0.0271260869565217,"IN","High","narrow","high",0.777777777777778,9
75,291,"FarHighNarrow",0.2,0.15,0.1,0.0199526231496888,1,0.321496201999253,0.000113607281865984,0.01,0.000289371980676328,0.0457536231884058,0.091,0.0243259259259259,0.000346215780998388,0.07,0.00182930756843801,-0.0719855072463768,0.048,-0.0271260869565217,"IN","Medium","narrow","high",0.636363636363636,22
75,292,"FarHighWide",0.5,0.25,0.03,0.01,0,0.559415550998892,-0.00983901586782281,0.005,-0.00471062801932367,0.345753623188406,0.2,0.133325925925926,0.100346215780998,0.111,0.042829307568438,-0.141985507246377,0.015,-0.0601260869565217,"IW","Low","wide","high",0.357142857142857,14
75,293,"FarHighNarrow",0.2,0.15,0.1,0.0158489319246111,0,0.918765065000116,-0.00399008394321168,0.008,-0.00171062801932367,0.0457536231884058,0.091,0.0243259259259259,0.000346215780998388,0.07,0.00182930756843801,-0.0719855072463768,0.048,-0.0271260869565217,"IN","Medium","narrow","high",0.52,25
75,295,"FarHighNarrow",0.2,0.15,0.1,0.0199526231496888,1,0.609025259000191,0.000113607281865984,0.01,0.000289371980676328,0.0457536231884058,0.091,0.0243259259259259,0.000346215780998388,0.07,0.00182930756843801,-0.0719855072463768,0.048,-0.0271260869565217,"IN","Medium","narrow","high",0.636363636363636,22
75,297,"FarLowNarrow",0.1,0.15,0.2,0.0158489319246111,1,0.5382192699999,-0.00399008394321168,0.008,-0.00171062801932367,-0.0542463768115942,0.048,-0.0186740740740741,0.000346215780998388,0.07,0.00182930756843801,0.0280144927536232,0.091,0.0158739130434783,"DN","Medium","narrow","low",0.606060606060606,33
75,298,"ThreeLinesControl",0,0,0.1,0.0199526231496888,1,0.672060818000318,0.000113607281865984,0.01,0.000289371980676328,-0.154246376811594,0,-0.0666740740740741,-0.149653784219002,0,-0.068170692431562,-0.0719855072463768,0.048,-0.0271260869565217,"Single","Medium","controls","low",0.6875,16
75,300,"ThreeLinesControl",0,0,0.1,0.0158489319246111,1,0.393544571999882,-0.00399008394321168,0.008,-0.00171062801932367,-0.154246376811594,0,-0.0666740740740741,-0.149653784219002,0,-0.068170692431562,-0.0719855072463768,0.048,-0.0271260869565217,"Single","Medium","controls","low",0.65625,32
75,302,"Constant",0.1,0.1,0.1,0.0158489319246111,0,0.212733286000002,-0.00399008394321168,0.008,-0.00171062801932367,-0.0542463768115942,0.048,-0.0186740740740741,-0.0496537842190016,0.048,-0.020170692431562,-0.0719855072463768,0.048,-0.0271260869565217,"Constant","Medium","controls","high",0.75,20
75,303,"Constant",0.1,0.1,0.1,0.0199526231496888,1,0.514281621999544,0.000113607281865984,0.01,0.000289371980676328,-0.0542463768115942,0.048,-0.0186740740740741,-0.0496537842190016,0.048,-0.020170692431562,-0.0719855072463768,0.048,-0.0271260869565217,"Constant","Medium","controls","high",0.777777777777778,9
75,304,"FarLowNarrow",0.1,0.15,0.2,0.0125892541179417,1,0.384162256999844,-0.00724976174988114,0.006,-0.00371062801932367,-0.0542463768115942,0.048,-0.0186740740740741,0.000346215780998388,0.07,0.00182930756843801,0.0280144927536232,0.091,0.0158739130434783,"DN","Low","narrow","low",0.285714285714286,28
75,305,"FarLowWide",0.03,0.25,0.5,0.0251188643150958,1,0.318128851000438,0.00527984844727299,0.012,0.00228937198067633,-0.124246376811594,0.015,-0.0516740740740741,0.100346215780998,0.111,0.042829307568438,0.328014492753623,0.2,0.124873913043478,"DW","High","wide","low",0.833333333333333,24
75,306,"FarLowNarrow",0.1,0.15,0.2,0.01,0,0.460555998000928,-0.00983901586782281,0.005,-0.00471062801932367,-0.0542463768115942,0.048,-0.0186740740740741,0.000346215780998388,0.07,0.00182930756843801,0.0280144927536232,0.091,0.0158739130434783,"DN","Low","narrow","low",0.2,10
75,307,"FarHighWide",0.5,0.25,0.03,0.0125892541179417,1,0.586724468001194,-0.00724976174988114,0.006,-0.00371062801932367,0.345753623188406,0.2,0.133325925925926,0.100346215780998,0.111,0.042829307568438,-0.141985507246377,0.015,-0.0601260869565217,"IW","Medium","wide","high",0.380952380952381,21
75,308,"ThreeLinesControl",0,0,0.1,0.0125892541179417,1,0.42507205900074,-0.00724976174988114,0.006,-0.00371062801932367,-0.154246376811594,0,-0.0666740740740741,-0.149653784219002,0,-0.068170692431562,-0.0719855072463768,0.048,-0.0271260869565217,"Single","Low","controls","low",0.296296296296296,27
75,309,"FarHighNarrow",0.2,0.15,0.1,0.0158489319246111,1,0.503656752000097,-0.00399008394321168,0.008,-0.00171062801932367,0.0457536231884058,0.091,0.0243259259259259,0.000346215780998388,0.07,0.00182930756843801,-0.0719855072463768,0.048,-0.0271260869565217,"IN","Medium","narrow","high",0.52,25
75,310,"FarLowNarrow",0.1,0.15,0.2,0.0125892541179417,0,0.542420475001563,-0.00724976174988114,0.006,-0.00371062801932367,-0.0542463768115942,0.048,-0.0186740740740741,0.000346215780998388,0.07,0.00182930756843801,0.0280144927536232,0.091,0.0158739130434783,"DN","Low","narrow","low",0.285714285714286,28
75,311,"FarLowWide",0.03,0.25,0.5,0.0199526231496888,0,0.450280127999577,0.000113607281865984,0.01,0.000289371980676328,-0.124246376811594,0.015,-0.0516740740740741,0.100346215780998,0.111,0.042829307568438,0.328014492753623,0.2,0.124873913043478,"DW","Medium","wide","low",0.294117647058824,34
75,312,"FarLowNarrow",0.1,0.15,0.2,0.0158489319246111,1,0.504450738999367,-0.00399008394321168,0.008,-0.00171062801932367,-0.0542463768115942,0.048,-0.0186740740740741,0.000346215780998388,0.07,0.00182930756843801,0.0280144927536232,0.091,0.0158739130434783,"DN","Medium","narrow","low",0.606060606060606,33
75,313,"FarLowNarrow",0.1,0.15,0.2,0.0125892541179417,1,0.291435852001086,-0.00724976174988114,0.006,-0.00371062801932367,-0.0542463768115942,0.048,-0.0186740740740741,0.000346215780998388,0.07,0.00182930756843801,0.0280144927536232,0.091,0.0158739130434783,"DN","Low","narrow","low",0.285714285714286,28
75,314,"FarHighWide",0.5,0.25,0.03,0.01,1,0.417590846998792,-0.00983901586782281,0.005,-0.00471062801932367,0.345753623188406,0.2,0.133325925925926,0.100346215780998,0.111,0.042829307568438,-0.141985507246377,0.015,-0.0601260869565217,"IW","Low","wide","high",0.357142857142857,14
75,315,"ThreeLinesControl",0,0,0.1,0.01,0,0.367463033999229,-0.00983901586782281,0.005,-0.00471062801932367,-0.154246376811594,0,-0.0666740740740741,-0.149653784219002,0,-0.068170692431562,-0.0719855072463768,0.048,-0.0271260869565217,"Single","Low","controls","low",0.2,10
75,316,"ThreeLinesControl",0,0,0.1,0.0125892541179417,0,0.386881761000041,-0.00724976174988114,0.006,-0.00371062801932367,-0.154246376811594,0,-0.0666740740740741,-0.149653784219002,0,-0.068170692431562,-0.0719855072463768,0.048,-0.0271260869565217,"Single","Low","controls","low",0.296296296296296,27
75,317,"ThreeLinesControl",0,0,0.1,0.0158489319246111,1,0.465067426001042,-0.00399008394321168,0.008,-0.00171062801932367,-0.154246376811594,0,-0.0666740740740741,-0.149653784219002,0,-0.068170692431562,-0.0719855072463768,0.048,-0.0271260869565217,"Single","Medium","controls","low",0.65625,32
75,318,"FarLowNarrow",0.1,0.15,0.2,0.01,1,0.486250938998637,-0.00983901586782281,0.005,-0.00471062801932367,-0.0542463768115942,0.048,-0.0186740740740741,0.000346215780998388,0.07,0.00182930756843801,0.0280144927536232,0.091,0.0158739130434783,"DN","Low","narrow","low",0.2,10
75,319,"FarHighWide",0.5,0.25,0.03,0.00794328234724281,0,0.588253059000635,-0.01189573352058,0.004,-0.00571062801932367,0.345753623188406,0.2,0.133325925925926,0.100346215780998,0.111,0.042829307568438,-0.141985507246377,0.015,-0.0601260869565217,"IW","Low","wide","high",0,6
75,320,"Constant",0.1,0.1,0.1,0.0158489319246111,0,0.370593993000512,-0.00399008394321168,0.008,-0.00171062801932367,-0.0542463768115942,0.048,-0.0186740740740741,-0.0496537842190016,0.048,-0.020170692431562,-0.0719855072463768,0.048,-0.0271260869565217,"Constant","Medium","controls","high",0.75,20
75,321,"FarLowNarrow",0.1,0.15,0.2,0.00794328234724281,0,0.264800275001107,-0.01189573352058,0.004,-0.00571062801932367,-0.0542463768115942,0.048,-0.0186740740740741,0.000346215780998388,0.07,0.00182930756843801,0.0280144927536232,0.091,0.0158739130434783,"DN","Low","narrow","low",0,2
75,322,"ThreeLinesControl",0,0,0.1,0.0125892541179417,1,0.317923336999229,-0.00724976174988114,0.006,-0.00371062801932367,-0.154246376811594,0,-0.0666740740740741,-0.149653784219002,0,-0.068170692431562,-0.0719855072463768,0.048,-0.0271260869565217,"Single","Low","controls","low",0.296296296296296,27
75,323,"ThreeLinesControl",0,0,0.1,0.01,0,0.492078590001256,-0.00983901586782281,0.005,-0.00471062801932367,-0.154246376811594,0,-0.0666740740740741,-0.149653784219002,0,-0.068170692431562,-0.0719855072463768,0.048,-0.0271260869565217,"Single","Low","controls","low",0.2,10
75,324,"FarHighWide",0.5,0.25,0.03,0.01,1,0.418461207998917,-0.00983901586782281,0.005,-0.00471062801932367,0.345753623188406,0.2,0.133325925925926,0.100346215780998,0.111,0.042829307568438,-0.141985507246377,0.015,-0.0601260869565217,"IW","Low","wide","high",0.357142857142857,14
75,325,"FarHighWide",0.5,0.25,0.03,0.00794328234724281,0,0.60965334499997,-0.01189573352058,0.004,-0.00571062801932367,0.345753623188406,0.2,0.133325925925926,0.100346215780998,0.111,0.042829307568438,-0.141985507246377,0.015,-0.0601260869565217,"IW","Low","wide","high",0,6
75,326,"FarLowWide",0.03,0.25,0.5,0.0251188643150958,1,0.495586660001209,0.00527984844727299,0.012,0.00228937198067633,-0.124246376811594,0.015,-0.0516740740740741,0.100346215780998,0.111,0.042829307568438,0.328014492753623,0.2,0.124873913043478,"DW","High","wide","low",0.833333333333333,24
75,327,"FarLowNarrow",0.1,0.15,0.2,0.01,1,0.300538188001156,-0.00983901586782281,0.005,-0.00471062801932367,-0.0542463768115942,0.048,-0.0186740740740741,0.000346215780998388,0.07,0.00182930756843801,0.0280144927536232,0.091,0.0158739130434783,"DN","Low","narrow","low",0.2,10
75,328,"FarLowNarrow",0.1,0.15,0.2,0.00794328234724281,0,0.225751693000348,-0.01189573352058,0.004,-0.00571062801932367,-0.0542463768115942,0.048,-0.0186740740740741,0.000346215780998388,0.07,0.00182930756843801,0.0280144927536232,0.091,0.0158739130434783,"DN","Low","narrow","low",0,2
75,329,"FarLowNarrow",0.1,0.15,0.2,0.01,0,0.303674517001127,-0.00983901586782281,0.005,-0.00471062801932367,-0.0542463768115942,0.048,-0.0186740740740741,0.000346215780998388,0.07,0.00182930756843801,0.0280144927536232,0.091,0.0158739130434783,"DN","Low","narrow","low",0.2,10
75,330,"FarLowWide",0.03,0.25,0.5,0.0199526231496888,0,0.243178871000055,0.000113607281865984,0.01,0.000289371980676328,-0.124246376811594,0.015,-0.0516740740740741,0.100346215780998,0.111,0.042829307568438,0.328014492753623,0.2,0.124873913043478,"DW","Medium","wide","low",0.294117647058824,34
75,331,"Constant",0.1,0.1,0.1,0.0199526231496888,1,0.505145512999661,0.000113607281865984,0.01,0.000289371980676328,-0.0542463768115942,0.048,-0.0186740740740741,-0.0496537842190016,0.048,-0.020170692431562,-0.0719855072463768,0.048,-0.0271260869565217,"Constant","Medium","controls","high",0.777777777777778,9
75,332,"FarLowNarrow",0.1,0.15,0.2,0.0125892541179417,0,0.636018367998986,-0.00724976174988114,0.006,-0.00371062801932367,-0.0542463768115942,0.048,-0.0186740740740741,0.000346215780998388,0.07,0.00182930756843801,0.0280144927536232,0.091,0.0158739130434783,"DN","Low","narrow","low",0.285714285714286,28
75,333,"FarHighWide",0.5,0.25,0.03,0.01,1,0.754177613000138,-0.00983901586782281,0.005,-0.00471062801932367,0.345753623188406,0.2,0.133325925925926,0.100346215780998,0.111,0.042829307568438,-0.141985507246377,0.015,-0.0601260869565217,"IW","Low","wide","high",0.357142857142857,14
75,336,"FarHighNarrow",0.2,0.15,0.1,0.0125892541179417,0,0.955894273000013,-0.00724976174988114,0.006,-0.00371062801932367,0.0457536231884058,0.091,0.0243259259259259,0.000346215780998388,0.07,0.00182930756843801,-0.0719855072463768,0.048,-0.0271260869565217,"IN","Low","narrow","high",0.352941176470588,17
75,337,"FarLowNarrow",0.1,0.15,0.2,0.0158489319246111,0,0.690041284000472,-0.00399008394321168,0.008,-0.00171062801932367,-0.0542463768115942,0.048,-0.0186740740740741,0.000346215780998388,0.07,0.00182930756843801,0.0280144927536232,0.091,0.0158739130434783,"DN","Medium","narrow","low",0.606060606060606,33
75,338,"FarHighWide",0.5,0.25,0.03,0.00794328234724281,0,1.16827155499959,-0.01189573352058,0.004,-0.00571062801932367,0.345753623188406,0.2,0.133325925925926,0.100346215780998,0.111,0.042829307568438,-0.141985507246377,0.015,-0.0601260869565217,"IW","Low","wide","high",0,6
75,339,"FarLowWide",0.03,0.25,0.5,0.0251188643150958,1,0.638470231000611,0.00527984844727299,0.012,0.00228937198067633,-0.124246376811594,0.015,-0.0516740740740741,0.100346215780998,0.111,0.042829307568438,0.328014492753623,0.2,0.124873913043478,"DW","High","wide","low",0.833333333333333,24
75,340,"FarHighWide",0.5,0.25,0.03,0.01,0,0.50068808800097,-0.00983901586782281,0.005,-0.00471062801932367,0.345753623188406,0.2,0.133325925925926,0.100346215780998,0.111,0.042829307568438,-0.141985507246377,0.015,-0.0601260869565217,"IW","Low","wide","high",0.357142857142857,14
75,341,"Constant",0.1,0.1,0.1,0.0158489319246111,1,0.642817343999923,-0.00399008394321168,0.008,-0.00171062801932367,-0.0542463768115942,0.048,-0.0186740740740741,-0.0496537842190016,0.048,-0.020170692431562,-0.0719855072463768,0.048,-0.0271260869565217,"Constant","Medium","controls","high",0.75,20
75,342,"FarLowNarrow",0.1,0.15,0.2,0.0199526231496888,1,0.66611618099887,0.000113607281865984,0.01,0.000289371980676328,-0.0542463768115942,0.048,-0.0186740740740741,0.000346215780998388,0.07,0.00182930756843801,0.0280144927536232,0.091,0.0158739130434783,"DN","Medium","narrow","low",0.590909090909091,22
75,343,"FarHighWide",0.5,0.25,0.03,0.0125892541179417,1,1.08511063500009,-0.00724976174988114,0.006,-0.00371062801932367,0.345753623188406,0.2,0.133325925925926,0.100346215780998,0.111,0.042829307568438,-0.141985507246377,0.015,-0.0601260869565217,"IW","Medium","wide","high",0.380952380952381,21
75,344,"FarHighWide",0.5,0.25,0.03,0.01,1,0.595026619999771,-0.00983901586782281,0.005,-0.00471062801932367,0.345753623188406,0.2,0.133325925925926,0.100346215780998,0.111,0.042829307568438,-0.141985507246377,0.015,-0.0601260869565217,"IW","Low","wide","high",0.357142857142857,14
75,345,"FarHighNarrow",0.2,0.15,0.1,0.0158489319246111,0,0.577286562000154,-0.00399008394321168,0.008,-0.00171062801932367,0.0457536231884058,0.091,0.0243259259259259,0.000346215780998388,0.07,0.00182930756843801,-0.0719855072463768,0.048,-0.0271260869565217,"IN","Medium","narrow","high",0.52,25
75,346,"FarLowWide",0.03,0.25,0.5,0.0199526231496888,0,0.444429581000804,0.000113607281865984,0.01,0.000289371980676328,-0.124246376811594,0.015,-0.0516740740740741,0.100346215780998,0.111,0.042829307568438,0.328014492753623,0.2,0.124873913043478,"DW","Medium","wide","low",0.294117647058824,34
75,348,"Constant",0.1,0.1,0.1,0.0125892541179417,0,0.613220482999168,-0.00724976174988114,0.006,-0.00371062801932367,-0.0542463768115942,0.048,-0.0186740740740741,-0.0496537842190016,0.048,-0.020170692431562,-0.0719855072463768,0.048,-0.0271260869565217,"Constant","Low","controls","high",0.461538461538462,26
75,349,"FarLowNarrow",0.1,0.15,0.2,0.0158489319246111,0,0.659942493999552,-0.00399008394321168,0.008,-0.00171062801932367,-0.0542463768115942,0.048,-0.0186740740740741,0.000346215780998388,0.07,0.00182930756843801,0.0280144927536232,0.091,0.0158739130434783,"DN","Medium","narrow","low",0.606060606060606,33
75,350,"FarLowNarrow",0.1,0.15,0.2,0.0199526231496888,0,0.577965337999558,0.000113607281865984,0.01,0.000289371980676328,-0.0542463768115942,0.048,-0.0186740740740741,0.000346215780998388,0.07,0.00182930756843801,0.0280144927536232,0.091,0.0158739130434783,"DN","Medium","narrow","low",0.590909090909091,22
75,351,"Constant",0.1,0.1,0.1,0.0158489319246111,1,0.591139468999245,-0.00399008394321168,0.008,-0.00171062801932367,-0.0542463768115942,0.048,-0.0186740740740741,-0.0496537842190016,0.048,-0.020170692431562,-0.0719855072463768,0.048,-0.0271260869565217,"Constant","Medium","controls","high",0.75,20
75,352,"FarHighNarrow",0.2,0.15,0.1,0.0199526231496888,1,0.893357956998443,0.000113607281865984,0.01,0.000289371980676328,0.0457536231884058,0.091,0.0243259259259259,0.000346215780998388,0.07,0.00182930756843801,-0.0719855072463768,0.048,-0.0271260869565217,"IN","Medium","narrow","high",0.636363636363636,22
75,353,"ThreeLinesControl",0,0,0.1,0.0125892541179417,0,0.483537587000683,-0.00724976174988114,0.006,-0.00371062801932367,-0.154246376811594,0,-0.0666740740740741,-0.149653784219002,0,-0.068170692431562,-0.0719855072463768,0.048,-0.0271260869565217,"Single","Low","controls","low",0.296296296296296,27
75,354,"FarHighWide",0.5,0.25,0.03,0.00794328234724281,0,1.21777028200086,-0.01189573352058,0.004,-0.00571062801932367,0.345753623188406,0.2,0.133325925925926,0.100346215780998,0.111,0.042829307568438,-0.141985507246377,0.015,-0.0601260869565217,"IW","Low","wide","high",0,6
75,355,"FarHighNarrow",0.2,0.15,0.1,0.0158489319246111,0,0.871648915999685,-0.00399008394321168,0.008,-0.00171062801932367,0.0457536231884058,0.091,0.0243259259259259,0.000346215780998388,0.07,0.00182930756843801,-0.0719855072463768,0.048,-0.0271260869565217,"IN","Medium","narrow","high",0.52,25
75,356,"FarHighNarrow",0.2,0.15,0.1,0.0199526231496888,0,0.454000793999512,0.000113607281865984,0.01,0.000289371980676328,0.0457536231884058,0.091,0.0243259259259259,0.000346215780998388,0.07,0.00182930756843801,-0.0719855072463768,0.048,-0.0271260869565217,"IN","Medium","narrow","high",0.636363636363636,22
75,358,"Constant",0.1,0.1,0.1,0.0125892541179417,0,0.890448162999746,-0.00724976174988114,0.006,-0.00371062801932367,-0.0542463768115942,0.048,-0.0186740740740741,-0.0496537842190016,0.048,-0.020170692431562,-0.0719855072463768,0.048,-0.0271260869565217,"Constant","Low","controls","high",0.461538461538462,26
75,359,"FarLowNarrow",0.1,0.15,0.2,0.0251188643150958,1,0.558380761998706,0.00527984844727299,0.012,0.00228937198067633,-0.0542463768115942,0.048,-0.0186740740740741,0.000346215780998388,0.07,0.00182930756843801,0.0280144927536232,0.091,0.0158739130434783,"DN","High","narrow","low",0.666666666666667,9
75,360,"Constant",0.1,0.1,0.1,0.0158489319246111,0,0.649847912000041,-0.00399008394321168,0.008,-0.00171062801932367,-0.0542463768115942,0.048,-0.0186740740740741,-0.0496537842190016,0.048,-0.020170692431562,-0.0719855072463768,0.048,-0.0271260869565217,"Constant","Medium","controls","high",0.75,20
75,361,"FarHighWide",0.5,0.25,0.03,0.01,0,0.335805020000407,-0.00983901586782281,0.005,-0.00471062801932367,0.345753623188406,0.2,0.133325925925926,0.100346215780998,0.111,0.042829307568438,-0.141985507246377,0.015,-0.0601260869565217,"IW","Low","wide","high",0.357142857142857,14
75,362,"ThreeLinesControl",0,0,0.1,0.0158489319246111,0,0.605312994999622,-0.00399008394321168,0.008,-0.00171062801932367,-0.154246376811594,0,-0.0666740740740741,-0.149653784219002,0,-0.068170692431562,-0.0719855072463768,0.048,-0.0271260869565217,"Single","Medium","controls","low",0.65625,32
75,363,"ThreeLinesControl",0,0,0.1,0.0199526231496888,1,0.619165043999601,0.000113607281865984,0.01,0.000289371980676328,-0.154246376811594,0,-0.0666740740740741,-0.149653784219002,0,-0.068170692431562,-0.0719855072463768,0.048,-0.0271260869565217,"Single","Medium","controls","low",0.6875,16
75,365,"FarHighWide",0.5,0.25,0.03,0.0125892541179417,0,0.631825460999607,-0.00724976174988114,0.006,-0.00371062801932367,0.345753623188406,0.2,0.133325925925926,0.100346215780998,0.111,0.042829307568438,-0.141985507246377,0.015,-0.0601260869565217,"IW","Medium","wide","high",0.380952380952381,21
75,366,"FarHighWide",0.5,0.25,0.03,0.0158489319246111,1,0.390480927999306,-0.00399008394321167,0.008,-0.00171062801932367,0.345753623188406,0.2,0.133325925925926,0.100346215780998,0.111,0.042829307568438,-0.141985507246377,0.015,-0.0601260869565217,"IW","Medium","wide","high",0.631578947368421,19
75,367,"Constant",0.1,0.1,0.1,0.0199526231496888,1,0.324530568001137,0.000113607281865984,0.01,0.000289371980676328,-0.0542463768115942,0.048,-0.0186740740740741,-0.0496537842190016,0.048,-0.020170692431562,-0.0719855072463768,0.048,-0.0271260869565217,"Constant","Medium","controls","high",0.777777777777778,9
75,368,"FarHighWide",0.5,0.25,0.03,0.0125892541179417,1,0.49586698100029,-0.00724976174988114,0.006,-0.00371062801932367,0.345753623188406,0.2,0.133325925925926,0.100346215780998,0.111,0.042829307568438,-0.141985507246377,0.015,-0.0601260869565217,"IW","Medium","wide","high",0.380952380952381,21
75,369,"FarLowWide",0.03,0.25,0.5,0.0251188643150958,1,0.446107763000327,0.00527984844727299,0.012,0.00228937198067633,-0.124246376811594,0.015,-0.0516740740740741,0.100346215780998,0.111,0.042829307568438,0.328014492753623,0.2,0.124873913043478,"DW","High","wide","low",0.833333333333333,24
75,371,"Constant",0.1,0.1,0.1,0.0158489319246111,1,0.535464214000967,-0.00399008394321168,0.008,-0.00171062801932367,-0.0542463768115942,0.048,-0.0186740740740741,-0.0496537842190016,0.048,-0.020170692431562,-0.0719855072463768,0.048,-0.0271260869565217,"Constant","Medium","controls","high",0.75,20
75,372,"FarHighWide",0.5,0.25,0.03,0.01,0,0.589314285,-0.00983901586782281,0.005,-0.00471062801932367,0.345753623188406,0.2,0.133325925925926,0.100346215780998,0.111,0.042829307568438,-0.141985507246377,0.015,-0.0601260869565217,"IW","Low","wide","high",0.357142857142857,14
75,373,"ThreeLinesControl",0,0,0.1,0.0158489319246111,1,0.792385160000777,-0.00399008394321168,0.008,-0.00171062801932367,-0.154246376811594,0,-0.0666740740740741,-0.149653784219002,0,-0.068170692431562,-0.0719855072463768,0.048,-0.0271260869565217,"Single","Medium","controls","low",0.65625,32
75,374,"FarHighNarrow",0.2,0.15,0.1,0.0251188643150958,1,0.678369000999737,0.00527984844727299,0.012,0.00228937198067633,0.0457536231884058,0.091,0.0243259259259259,0.000346215780998388,0.07,0.00182930756843801,-0.0719855072463768,0.048,-0.0271260869565217,"IN","High","narrow","high",0.777777777777778,9
75,375,"ThreeLinesControl",0,0,0.1,0.0125892541179417,0,0.628990959001385,-0.00724976174988114,0.006,-0.00371062801932367,-0.154246376811594,0,-0.0666740740740741,-0.149653784219002,0,-0.068170692431562,-0.0719855072463768,0.048,-0.0271260869565217,"Single","Low","controls","low",0.296296296296296,27
75,376,"FarLowNarrow",0.1,0.15,0.2,0.0199526231496888,1,0.546763611999268,0.000113607281865984,0.01,0.000289371980676328,-0.0542463768115942,0.048,-0.0186740740740741,0.000346215780998388,0.07,0.00182930756843801,0.0280144927536232,0.091,0.0158739130434783,"DN","Medium","narrow","low",0.590909090909091,22
75,377,"Constant",0.1,0.1,0.1,0.0125892541179417,0,0.553232566999213,-0.00724976174988114,0.006,-0.00371062801932367,-0.0542463768115942,0.048,-0.0186740740740741,-0.0496537842190016,0.048,-0.020170692431562,-0.0719855072463768,0.048,-0.0271260869565217,"Constant","Low","controls","high",0.461538461538462,26
75,378,"Constant",0.1,0.1,0.1,0.0158489319246111,1,0.519586786000218,-0.00399008394321168,0.008,-0.00171062801932367,-0.0542463768115942,0.048,-0.0186740740740741,-0.0496537842190016,0.048,-0.020170692431562,-0.0719855072463768,0.048,-0.0271260869565217,"Constant","Medium","controls","high",0.75,20
