"Participant_Number","Trial_Number","Condition","FCfar","FCmed","FCclose","Target_Contrast","Correct_Response","Reaction_Time"
75,0,"FarLowNarrow",0.1,0.15,0.2,0.1,1,0.6266644490006
75,1,"FarLowNarrow",0.1,0.15,0.2,0.0794328234724282,1,0.296779544998572
75,2,"FarLowNarrow",0.1,0.15,0.2,0.0630957344480193,1,0.453866159999961
75,3,"FarHighWide",0.5,0.25,0.03,0.1,1,0.427735496999958
75,4,"FarLowNarrow",0.1,0.15,0.2,0.0501187233627272,1,0.586362125999585
75,5,"Constant",0.1,0.1,0.1,0.1,1,0.576581184999668
75,6,"FarLowNarrow",0.1,0.15,0.2,0.0398107170553497,1,0.647651569001027
75,7,"ThreeLinesControl",0,0,0.1,0.1,1,0.734655836000456
75,8,"ThreeLinesControl",0,0,0.1,0.0794328234724282,1,0.753604444000302
75,9,"ThreeLinesControl",0,0,0.1,0.0630957344480193,1,0.760259091000989
75,10,"FarHighNarrow",0.2,0.15,0.1,0.1,1,0.819049560999701
75,11,"Constant",0.1,0.1,0.1,0.0794328234724282,1,0.720210719000534
75,12,"ThreeLinesControl",0,0,0.1,0.0501187233627272,1,0.694399726999109
75,13,"FarHighNarrow",0.2,0.15,0.1,0.0794328234724282,1,0.634616379000363
75,14,"FarLowNarrow",0.1,0.15,0.2,0.0316227766016838,1,0.608483526999407
75,15,"FarHighWide",0.5,0.25,0.03,0.0794328234724282,1,0.744658763000189
75,16,"FarLowWide",0.03,0.25,0.5,0.1,1,0.756262353999773
75,17,"FarLowWide",0.03,0.25,0.5,0.0794328234724282,1,0.801839597999788
75,19,"FarLowWide",0.03,0.25,0.5,0.0630957344480193,1,0.534278209999684
75,20,"FarHighWide",0.5,0.25,0.03,0.0630957344480193,1,0.500687539000864
75,21,"Constant",0.1,0.1,0.1,0.0630957344480193,1,0.521384752999438
75,22,"FarLowNarrow",0.1,0.15,0.2,0.0251188643150958,1,0.456202139999732
75,24,"FarLowWide",0.03,0.25,0.5,0.0501187233627272,1,0.714032538000538
75,25,"FarHighWide",0.5,0.25,0.03,0.0501187233627272,1,0.552041754999664
75,27,"ThreeLinesControl",0,0,0.1,0.0398107170553497,1,0.513412610000159
75,29,"FarLowWide",0.03,0.25,0.5,0.0398107170553497,1,0.619832854999913
75,31,"Constant",0.1,0.1,0.1,0.0501187233627272,1,0.318998080998426
75,32,"FarLowNarrow",0.1,0.15,0.2,0.0199526231496888,1,0.700998006999725
75,33,"Constant",0.1,0.1,0.1,0.0398107170553497,1,0.627582607001386
75,34,"ThreeLinesControl",0,0,0.1,0.0316227766016838,1,0.609634350999841
75,35,"FarLowWide",0.03,0.25,0.5,0.0316227766016838,1,0.35973086499871
75,36,"FarLowNarrow",0.1,0.15,0.2,0.0158489319246111,1,0.341923521998979
75,37,"FarHighWide",0.5,0.25,0.03,0.0398107170553497,1,0.340619733000494
75,38,"FarHighWide",0.5,0.25,0.03,0.0316227766016838,1,0.361838635999447
75,39,"FarLowWide",0.03,0.25,0.5,0.0251188643150958,1,0.360443393999958
75,40,"FarHighNarrow",0.2,0.15,0.1,0.0630957344480193,1,0.331365734999054
75,41,"FarLowWide",0.03,0.25,0.5,0.0199526231496888,0,0.633552970999517
75,42,"FarHighWide",0.5,0.25,0.03,0.0251188643150958,1,0.496001806001004
75,44,"Constant",0.1,0.1,0.1,0.0316227766016838,1,0.441135606999524
75,45,"FarHighNarrow",0.2,0.15,0.1,0.0501187233627272,1,0.325021852999271
75,46,"ThreeLinesControl",0,0,0.1,0.0251188643150958,1,0.459410432000368
75,47,"FarHighWide",0.5,0.25,0.03,0.0199526231496888,1,0.745664334999674
75,48,"FarLowNarrow",0.1,0.15,0.2,0.0125892541179417,1,0.694421026999407
75,49,"Constant",0.1,0.1,0.1,0.0251188643150958,1,0.596791227000722
75,50,"Constant",0.1,0.1,0.1,0.0199526231496888,1,0.459063579999565
75,51,"FarLowWide",0.03,0.25,0.5,0.0251188643150958,1,0.329247831999965
75,52,"FarHighNarrow",0.2,0.15,0.1,0.0398107170553497,1,0.343012080000335
75,53,"Constant",0.1,0.1,0.1,0.0158489319246111,1,0.444638435999877
75,54,"FarLowNarrow",0.1,0.15,0.2,0.01,0,0.322973837999598
75,55,"ThreeLinesControl",0,0,0.1,0.0199526231496888,0,0.570187972001804
75,56,"ThreeLinesControl",0,0,0.1,0.0251188643150958,1,0.372229495000283
75,58,"FarHighWide",0.5,0.25,0.03,0.0158489319246111,1,0.385128019999684
75,59,"FarHighNarrow",0.2,0.15,0.1,0.0316227766016838,1,0.315454909999971
75,60,"FarLowNarrow",0.1,0.15,0.2,0.0125892541179417,0,0.482421931999852
75,61,"FarLowWide",0.03,0.25,0.5,0.0199526231496888,0,0.775520081999275
75,62,"FarHighWide",0.5,0.25,0.03,0.0125892541179417,1,0.316532152999571
75,63,"FarHighNarrow",0.2,0.15,0.1,0.0251188643150958,1,0.297740489999342
75,64,"Constant",0.1,0.1,0.1,0.0125892541179417,1,0.496081392999258
75,66,"FarLowNarrow",0.1,0.15,0.2,0.0158489319246111,0,0.435750138000003
75,67,"Constant",0.1,0.1,0.1,0.01,0,0.410476188000757
75,68,"FarHighNarrow",0.2,0.15,0.1,0.0199526231496888,0,0.592619099999865
75,69,"FarHighNarrow",0.2,0.15,0.1,0.0251188643150958,0,0.598631218999799
75,70,"FarLowWide",0.03,0.25,0.5,0.0251188643150958,1,0.75596666400088
75,71,"FarLowNarrow",0.1,0.15,0.2,0.0199526231496888,1,1.06733411400091
75,72,"FarHighNarrow",0.2,0.15,0.1,0.0316227766016838,1,0.86222075600017
75,73,"FarHighWide",0.5,0.25,0.03,0.01,0,0.940310154999679
75,74,"Constant",0.1,0.1,0.1,0.0125892541179417,0,0.577482180000516
75,75,"FarLowWide",0.03,0.25,0.5,0.0199526231496888,1,0.908350618999975
75,76,"FarLowNarrow",0.1,0.15,0.2,0.0158489319246111,1,0.738920564001091
75,77,"FarHighWide",0.5,0.25,0.03,0.0125892541179417,0,0.600878563000151
75,78,"FarLowWide",0.03,0.25,0.5,0.0158489319246111,1,0.694197568000163
75,79,"ThreeLinesControl",0,0,0.1,0.0199526231496888,1,0.811494478000895
75,80,"ThreeLinesControl",0,0,0.1,0.0158489319246111,1,1.04149039100048
75,81,"FarHighWide",0.5,0.25,0.03,0.0158489319246111,1,1.16775017299915
75,82,"Constant",0.1,0.1,0.1,0.0158489319246111,0,99
75,83,"FarLowWide",0.03,0.25,0.5,0.0125892541179417,0,0.755872976998944
75,84,"Constant",0.1,0.1,0.1,0.0199526231496888,1,0.602147274999879
75,85,"Constant",0.1,0.1,0.1,0.0158489319246111,1,0.592076462999103
75,86,"Constant",0.1,0.1,0.1,0.0125892541179417,1,0.653586950000317
75,87,"FarLowWide",0.03,0.25,0.5,0.0158489319246111,0,0.371425692999765
75,89,"FarHighNarrow",0.2,0.15,0.1,0.0251188643150958,1,0.484652884999377
75,90,"FarLowWide",0.03,0.25,0.5,0.0199526231496888,0,0.522806900999058
75,91,"Constant",0.1,0.1,0.1,0.01,1,1.09409770300044
75,93,"ThreeLinesControl",0,0,0.1,0.0125892541179417,0,0.586460470998645
75,94,"Constant",0.1,0.1,0.1,0.00794328234724281,0,0.414482665999458
75,95,"ThreeLinesControl",0,0,0.1,0.0158489319246111,1,1.22045177200016
75,96,"FarHighNarrow",0.2,0.15,0.1,0.0199526231496888,1,0.498888091000481
75,97,"ThreeLinesControl",0,0,0.1,0.0125892541179417,1,0.704856207001285
75,98,"Constant",0.1,0.1,0.1,0.01,1,1.15121978300158
75,99,"FarHighWide",0.5,0.25,0.03,0.0125892541179417,1,0.543060701000286
75,100,"FarHighWide",0.5,0.25,0.03,0.01,1,0.772935628998312
75,101,"FarLowNarrow",0.1,0.15,0.2,0.0125892541179417,0,1.02017038299891
75,102,"FarHighWide",0.5,0.25,0.03,0.00794328234724281,1,0.798777643998619
75,103,"FarLowWide",0.03,0.25,0.5,0.0251188643150958,1,0.748901523998939
75,104,"Constant",0.1,0.1,0.1,0.00794328234724281,1,0.562722255999688
75,105,"FarHighWide",0.5,0.25,0.03,0.00630957344480193,0,1.15033435499936
75,106,"Constant",0.1,0.1,0.1,0.00630957344480193,0,0.644376226000531
75,107,"FarHighNarrow",0.2,0.15,0.1,0.0158489319246111,1,0.362480791000053
75,108,"FarLowNarrow",0.1,0.15,0.2,0.0158489319246111,1,0.933566607998728
75,109,"ThreeLinesControl",0,0,0.1,0.01,1,0.978778225999122
75,110,"FarLowNarrow",0.1,0.15,0.2,0.0125892541179417,0,0.680898299000546
75,111,"ThreeLinesControl",0,0,0.1,0.00794328234724281,0,0.429991262999465
75,112,"FarHighWide",0.5,0.25,0.03,0.00794328234724281,1,0.348171673000252
75,113,"FarHighNarrow",0.2,0.15,0.1,0.0125892541179417,1,0.61835253100071
75,114,"FarLowNarrow",0.1,0.15,0.2,0.0158489319246111,1,0.560685370001011
75,115,"ThreeLinesControl",0,0,0.1,0.01,0,0.622539334999601
75,116,"ThreeLinesControl",0,0,0.1,0.0125892541179417,0,0.452744419000737
75,117,"FarLowWide",0.03,0.25,0.5,0.0199526231496888,1,0.3791997060016
75,118,"FarHighNarrow",0.2,0.15,0.1,0.01,1,0.282266940001136
75,119,"Constant",0.1,0.1,0.1,0.00794328234724281,0,0.653993064999668
75,120,"ThreeLinesControl",0,0,0.1,0.0158489319246111,1,0.238503814998694
75,121,"Constant",0.1,0.1,0.1,0.01,0,0.411933948998922
75,122,"FarHighNarrow",0.2,0.15,0.1,0.00794328234724281,0,0.369745849999163
75,123,"ThreeLinesControl",0,0,0.1,0.0125892541179417,0,0.312007885000639
75,124,"FarLowNarrow",0.1,0.15,0.2,0.0125892541179417,1,0.447279879999769
75,125,"FarLowWide",0.03,0.25,0.5,0.0158489319246111,1,0.373353819999465
75,126,"ThreeLinesControl",0,0,0.1,0.0158489319246111,1,0.48946831899957
75,127,"Constant",0.1,0.1,0.1,0.0125892541179417,1,0.65547016399978
75,128,"FarLowWide",0.03,0.25,0.5,0.0125892541179417,0,0.477579471000354
75,129,"FarHighNarrow",0.2,0.15,0.1,0.01,0,0.512697222000497
75,130,"FarHighNarrow",0.2,0.15,0.1,0.0125892541179417,1,0.52716987399981
75,131,"FarHighWide",0.5,0.25,0.03,0.00630957344480193,1,0.81323765200068
75,132,"FarHighWide",0.5,0.25,0.03,0.00501187233627272,1,0.416272033000496
75,133,"ThreeLinesControl",0,0,0.1,0.0125892541179417,0,0.382716615999016
75,134,"FarHighWide",0.5,0.25,0.03,0.00398107170553497,0,0.73146559000088
75,135,"FarHighWide",0.5,0.25,0.03,0.00501187233627272,1,0.78581875800046
75,136,"FarHighNarrow",0.2,0.15,0.1,0.01,1,0.50419521600088
75,137,"ThreeLinesControl",0,0,0.1,0.0158489319246111,1,0.398104693000278
75,138,"FarHighNarrow",0.2,0.15,0.1,0.00794328234724281,0,0.379328433999035
75,139,"FarLowNarrow",0.1,0.15,0.2,0.01,0,0.24945466400095
75,140,"ThreeLinesControl",0,0,0.1,0.0125892541179417,0,99
75,142,"FarHighNarrow",0.2,0.15,0.1,0.01,0,0.238097049001226
75,143,"FarLowNarrow",0.1,0.15,0.2,0.0125892541179417,0,0.289935077998962
75,144,"FarHighNarrow",0.2,0.15,0.1,0.0125892541179417,0,0.34322738300034
75,145,"FarLowWide",0.03,0.25,0.5,0.0158489319246111,0,0.346389260999786
75,146,"FarHighNarrow",0.2,0.15,0.1,0.0158489319246111,1,0.432535504000043
75,147,"Constant",0.1,0.1,0.1,0.01,0,0.63873235400024
75,148,"FarLowNarrow",0.1,0.15,0.2,0.0158489319246111,0,0.369616880001558
75,149,"Constant",0.1,0.1,0.1,0.0125892541179417,0,0.247891547000108
75,150,"FarLowWide",0.03,0.25,0.5,0.0199526231496888,0,0.9821125819999
75,151,"FarHighNarrow",0.2,0.15,0.1,0.0125892541179417,0,99
75,152,"FarLowWide",0.03,0.25,0.5,0.0251188643150958,1,0.480882838999605
75,153,"FarLowNarrow",0.1,0.15,0.2,0.0199526231496888,1,0.455453427999601
75,154,"ThreeLinesControl",0,0,0.1,0.0158489319246111,0,0.49339778600006
75,155,"FarHighNarrow",0.2,0.15,0.1,0.0158489319246111,1,0.387961771999471
75,156,"ThreeLinesControl",0,0,0.1,0.0199526231496888,1,0.258025827000893
75,157,"FarLowNarrow",0.1,0.15,0.2,0.0158489319246111,0,0.449201213999913
75,158,"FarLowNarrow",0.1,0.15,0.2,0.0199526231496888,0,0.311507934000474
75,159,"FarLowNarrow",0.1,0.15,0.2,0.0251188643150958,0,0.283319176000077
75,160,"ThreeLinesControl",0,0,0.1,0.0158489319246111,1,0.433561089999785
75,161,"FarLowWide",0.03,0.25,0.5,0.0199526231496888,1,0.534957759999088
75,162,"FarHighNarrow",0.2,0.15,0.1,0.0125892541179417,1,0.914927285999511
75,163,"FarLowWide",0.03,0.25,0.5,0.0158489319246111,0,0.279922616000476
75,164,"FarLowWide",0.03,0.25,0.5,0.0199526231496888,0,0.555306856998868
75,165,"Constant",0.1,0.1,0.1,0.0158489319246111,1,0.498285544999817
75,166,"ThreeLinesControl",0,0,0.1,0.0125892541179417,1,0.471482636001383
75,167,"Constant",0.1,0.1,0.1,0.0125892541179417,1,0.333854458000133
75,168,"FarLowNarrow",0.1,0.15,0.2,0.0316227766016838,1,0.459666524999193
75,169,"ThreeLinesControl",0,0,0.1,0.01,1,0.665946772000098
75,170,"FarHighWide",0.5,0.25,0.03,0.00398107170553497,0,0.735984551000001
75,171,"Constant",0.1,0.1,0.1,0.01,0,1.04516465400047
75,172,"ThreeLinesControl",0,0,0.1,0.00794328234724281,0,0.867429520001679
75,173,"Constant",0.1,0.1,0.1,0.0125892541179417,0,0.803042788000312
75,174,"FarLowWide",0.03,0.25,0.5,0.0251188643150958,1,0.864787157999672
75,175,"ThreeLinesControl",0,0,0.1,0.01,0,0.651939383000354
75,176,"FarLowNarrow",0.1,0.15,0.2,0.0251188643150958,1,0.633860173000357
75,177,"FarHighWide",0.5,0.25,0.03,0.00501187233627272,0,1.2956957639999
75,178,"ThreeLinesControl",0,0,0.1,0.0125892541179417,0,99
75,179,"FarLowNarrow",0.1,0.15,0.2,0.0199526231496888,0,1.14519490099883
75,180,"FarHighWide",0.5,0.25,0.03,0.00630957344480193,0,0.509332969000752
75,181,"FarHighWide",0.5,0.25,0.03,0.00794328234724281,0,0.435353097000188
75,182,"FarHighWide",0.5,0.25,0.03,0.01,0,0.456570438998824
75,183,"ThreeLinesControl",0,0,0.1,0.0158489319246111,1,0.47103527299987
75,184,"FarHighWide",0.5,0.25,0.03,0.0125892541179417,0,0.589263013000163
75,185,"FarLowWide",0.03,0.25,0.5,0.0199526231496888,1,0.827333040000667
75,186,"FarLowWide",0.03,0.25,0.5,0.0158489319246111,0,99
75,187,"FarHighWide",0.5,0.25,0.03,0.0158489319246111,1,0.158713910001097
75,188,"FarLowWide",0.03,0.25,0.5,0.0199526231496888,0,0.46037069599879
75,189,"FarHighNarrow",0.2,0.15,0.1,0.01,0,0.322991729000933
75,190,"ThreeLinesControl",0,0,0.1,0.0125892541179417,0,0.362391687998752
75,191,"FarHighWide",0.5,0.25,0.03,0.0125892541179417,1,0.284991527001694
75,192,"FarHighWide",0.5,0.25,0.03,0.01,0,0.243109564999031
75,193,"FarLowNarrow",0.1,0.15,0.2,0.0251188643150958,1,0.441613513999982
75,194,"FarHighWide",0.5,0.25,0.03,0.0125892541179417,1,0.701051109001128
75,195,"FarLowWide",0.03,0.25,0.5,0.0251188643150958,1,0.442867364999984
75,196,"ThreeLinesControl",0,0,0.1,0.0158489319246111,1,0.343991642001129
75,197,"Constant",0.1,0.1,0.1,0.0158489319246111,1,0.308154006999757
75,198,"FarLowWide",0.03,0.25,0.5,0.0199526231496888,0,0.305015293000906
75,199,"ThreeLinesControl",0,0,0.1,0.0125892541179417,0,0.687160284000129
75,200,"FarHighWide",0.5,0.25,0.03,0.01,0,0.509525396999379
75,201,"FarLowWide",0.03,0.25,0.5,0.0251188643150958,1,0.475563656000304
75,202,"FarLowWide",0.03,0.25,0.5,0.0199526231496888,1,0.537889613000516
75,204,"FarLowWide",0.03,0.25,0.5,0.0158489319246111,0,0.214039221000348
75,206,"Constant",0.1,0.1,0.1,0.0125892541179417,1,0.282863172000361
75,208,"FarHighNarrow",0.2,0.15,0.1,0.0125892541179417,0,0.308777818001545
75,209,"FarHighNarrow",0.2,0.15,0.1,0.0158489319246111,0,0.235256268999365
75,210,"FarLowWide",0.03,0.25,0.5,0.0199526231496888,0,0.486148216999936
75,211,"FarHighNarrow",0.2,0.15,0.1,0.0199526231496888,1,0.460029912999744
75,212,"FarLowNarrow",0.1,0.15,0.2,0.0199526231496888,1,0.433371000999614
75,214,"FarLowWide",0.03,0.25,0.5,0.0251188643150958,1,0.563682504000099
75,215,"FarHighWide",0.5,0.25,0.03,0.0125892541179417,0,0.513686846999917
75,216,"ThreeLinesControl",0,0,0.1,0.0158489319246111,1,0.695811923000292
75,218,"Constant",0.1,0.1,0.1,0.01,0,0.532128476999787
75,219,"FarHighWide",0.5,0.25,0.03,0.0158489319246111,0,0.721539116999338
75,220,"ThreeLinesControl",0,0,0.1,0.0125892541179417,0,0.647142396999698
75,221,"ThreeLinesControl",0,0,0.1,0.0158489319246111,1,0.396456148999278
75,222,"FarLowNarrow",0.1,0.15,0.2,0.0158489319246111,1,0.650694076000946
75,223,"ThreeLinesControl",0,0,0.1,0.0125892541179417,1,0.594305996000912
75,224,"FarHighNarrow",0.2,0.15,0.1,0.0158489319246111,1,0.693221459998313
75,225,"ThreeLinesControl",0,0,0.1,0.01,0,0.643134465999537
75,226,"Constant",0.1,0.1,0.1,0.0125892541179417,1,0.889535825001076
75,227,"FarLowNarrow",0.1,0.15,0.2,0.0125892541179417,0,0.724423540001226
75,228,"FarHighWide",0.5,0.25,0.03,0.0199526231496888,1,0.96165312300036
75,229,"FarHighNarrow",0.2,0.15,0.1,0.0125892541179417,1,0.566866184999526
75,230,"FarLowWide",0.03,0.25,0.5,0.0199526231496888,0,0.971848910001427
75,231,"ThreeLinesControl",0,0,0.1,0.0125892541179417,0,0.570149095001398
75,232,"Constant",0.1,0.1,0.1,0.01,0,0.472046922001027
75,233,"FarLowNarrow",0.1,0.15,0.2,0.0158489319246111,1,0.518627561999892
75,234,"FarLowNarrow",0.1,0.15,0.2,0.0125892541179417,0,0.668547945000682
75,235,"FarHighNarrow",0.2,0.15,0.1,0.01,0,0.62686980700164
75,236,"Constant",0.1,0.1,0.1,0.0125892541179417,1,0.368552940999507
75,238,"Constant",0.1,0.1,0.1,0.01,1,0.724392378999255
75,239,"FarHighWide",0.5,0.25,0.03,0.0158489319246111,1,0.339693497999178
75,240,"ThreeLinesControl",0,0,0.1,0.0158489319246111,1,1.18666890200075
75,241,"FarLowNarrow",0.1,0.15,0.2,0.0158489319246111,0,0.44072288300049
75,242,"Constant",0.1,0.1,0.1,0.00794328234724281,0,0.501821945999836
75,243,"Constant",0.1,0.1,0.1,0.01,1,0.340457276999587
75,244,"ThreeLinesControl",0,0,0.1,0.0125892541179417,0,0.722501401000045
75,245,"FarHighNarrow",0.2,0.15,0.1,0.0125892541179417,0,0.616268338999362
75,246,"ThreeLinesControl",0,0,0.1,0.0158489319246111,1,0.758783560999291
75,248,"FarLowNarrow",0.1,0.15,0.2,0.0199526231496888,1,0.70397163799862
75,249,"FarLowWide",0.03,0.25,0.5,0.0251188643150958,1,0.534018710000964
75,250,"FarHighNarrow",0.2,0.15,0.1,0.0158489319246111,0,99
75,251,"FarLowNarrow",0.1,0.15,0.2,0.0158489319246111,0,0.631257880999328
75,252,"ThreeLinesControl",0,0,0.1,0.0125892541179417,1,0.357584961000612
75,253,"FarLowWide",0.03,0.25,0.5,0.0199526231496888,0,0.499626530001478
75,254,"FarLowNarrow",0.1,0.15,0.2,0.0199526231496888,1,0.599591641999723
75,255,"Constant",0.1,0.1,0.1,0.00794328234724281,0,0.421840462000546
75,256,"FarHighWide",0.5,0.25,0.03,0.0125892541179417,0,0.539984409999306
75,257,"FarHighWide",0.5,0.25,0.03,0.0158489319246111,0,0.433075299999473
75,258,"FarLowWide",0.03,0.25,0.5,0.0251188643150958,1,0.311373849999654
75,259,"ThreeLinesControl",0,0,0.1,0.01,0,0.470656851000967
75,260,"ThreeLinesControl",0,0,0.1,0.0125892541179417,0,0.396870184000363
75,261,"FarLowNarrow",0.1,0.15,0.2,0.0158489319246111,1,0.402616995999779
75,262,"ThreeLinesControl",0,0,0.1,0.0158489319246111,0,0.423949759000607
75,263,"Constant",0.1,0.1,0.1,0.01,1,1.15815465300147
75,264,"FarHighWide",0.5,0.25,0.03,0.0199526231496888,1,0.539278530999582
75,265,"FarHighWide",0.5,0.25,0.03,0.0158489319246111,1,0.359280906999629
75,266,"FarLowWide",0.03,0.25,0.5,0.0199526231496888,0,0.469408545999613
75,270,"Constant",0.1,0.1,0.1,0.00794328234724281,0,0.601035001000128
75,271,"FarLowNarrow",0.1,0.15,0.2,0.0125892541179417,1,0.671287324999867
75,272,"FarHighNarrow",0.2,0.15,0.1,0.0199526231496888,1,0.429516889998922
75,273,"ThreeLinesControl",0,0,0.1,0.0199526231496888,1,0.290442857000016
75,275,"FarHighNarrow",0.2,0.15,0.1,0.0158489319246111,0,0.27071812900067
75,276,"Constant",0.1,0.1,0.1,0.01,0,0.500931018999836
75,277,"FarLowWide",0.03,0.25,0.5,0.0251188643150958,1,0.276530794000792
75,278,"FarHighWide",0.5,0.25,0.03,0.0125892541179417,1,0.153326944000582
75,279,"FarHighNarrow",0.2,0.15,0.1,0.0199526231496888,1,0.734202170999197
75,281,"FarHighNarrow",0.2,0.15,0.1,0.0158489319246111,0,0.280849155000396
75,282,"FarLowNarrow",0.1,0.15,0.2,0.01,0,0.390934381999614
75,283,"ThreeLinesControl",0,0,0.1,0.0158489319246111,0,0.458042749000015
75,285,"Constant",0.1,0.1,0.1,0.0125892541179417,0,0.574406044999705
75,286,"FarHighNarrow",0.2,0.15,0.1,0.0199526231496888,0,0.538269160000709
75,287,"FarLowWide",0.03,0.25,0.5,0.0199526231496888,0,0.704348035000294
75,289,"FarLowNarrow",0.1,0.15,0.2,0.0125892541179417,0,0.484733943998435
75,290,"FarHighNarrow",0.2,0.15,0.1,0.0251188643150958,1,0.522919102000742
75,291,"FarHighNarrow",0.2,0.15,0.1,0.0199526231496888,1,0.321496201999253
75,292,"FarHighWide",0.5,0.25,0.03,0.01,0,0.559415550998892
75,293,"FarHighNarrow",0.2,0.15,0.1,0.0158489319246111,0,0.918765065000116
75,295,"FarHighNarrow",0.2,0.15,0.1,0.0199526231496888,1,0.609025259000191
75,297,"FarLowNarrow",0.1,0.15,0.2,0.0158489319246111,1,0.5382192699999
75,298,"ThreeLinesControl",0,0,0.1,0.0199526231496888,1,0.672060818000318
75,300,"ThreeLinesControl",0,0,0.1,0.0158489319246111,1,0.393544571999882
75,302,"Constant",0.1,0.1,0.1,0.0158489319246111,0,0.212733286000002
75,303,"Constant",0.1,0.1,0.1,0.0199526231496888,1,0.514281621999544
75,304,"FarLowNarrow",0.1,0.15,0.2,0.0125892541179417,1,0.384162256999844
75,305,"FarLowWide",0.03,0.25,0.5,0.0251188643150958,1,0.318128851000438
75,306,"FarLowNarrow",0.1,0.15,0.2,0.01,0,0.460555998000928
75,307,"FarHighWide",0.5,0.25,0.03,0.0125892541179417,1,0.586724468001194
75,308,"ThreeLinesControl",0,0,0.1,0.0125892541179417,1,0.42507205900074
75,309,"FarHighNarrow",0.2,0.15,0.1,0.0158489319246111,1,0.503656752000097
75,310,"FarLowNarrow",0.1,0.15,0.2,0.0125892541179417,0,0.542420475001563
75,311,"FarLowWide",0.03,0.25,0.5,0.0199526231496888,0,0.450280127999577
75,312,"FarLowNarrow",0.1,0.15,0.2,0.0158489319246111,1,0.504450738999367
75,313,"FarLowNarrow",0.1,0.15,0.2,0.0125892541179417,1,0.291435852001086
75,314,"FarHighWide",0.5,0.25,0.03,0.01,1,0.417590846998792
75,315,"ThreeLinesControl",0,0,0.1,0.01,0,0.367463033999229
75,316,"ThreeLinesControl",0,0,0.1,0.0125892541179417,0,0.386881761000041
75,317,"ThreeLinesControl",0,0,0.1,0.0158489319246111,1,0.465067426001042
75,318,"FarLowNarrow",0.1,0.15,0.2,0.01,1,0.486250938998637
75,319,"FarHighWide",0.5,0.25,0.03,0.00794328234724281,0,0.588253059000635
75,320,"Constant",0.1,0.1,0.1,0.0158489319246111,0,0.370593993000512
75,321,"FarLowNarrow",0.1,0.15,0.2,0.00794328234724281,0,0.264800275001107
75,322,"ThreeLinesControl",0,0,0.1,0.0125892541179417,1,0.317923336999229
75,323,"ThreeLinesControl",0,0,0.1,0.01,0,0.492078590001256
75,324,"FarHighWide",0.5,0.25,0.03,0.01,1,0.418461207998917
75,325,"FarHighWide",0.5,0.25,0.03,0.00794328234724281,0,0.60965334499997
75,326,"FarLowWide",0.03,0.25,0.5,0.0251188643150958,1,0.495586660001209
75,327,"FarLowNarrow",0.1,0.15,0.2,0.01,1,0.300538188001156
75,328,"FarLowNarrow",0.1,0.15,0.2,0.00794328234724281,0,0.225751693000348
75,329,"FarLowNarrow",0.1,0.15,0.2,0.01,0,0.303674517001127
75,330,"FarLowWide",0.03,0.25,0.5,0.0199526231496888,0,0.243178871000055
75,331,"Constant",0.1,0.1,0.1,0.0199526231496888,1,0.505145512999661
75,332,"FarLowNarrow",0.1,0.15,0.2,0.0125892541179417,0,0.636018367998986
75,333,"FarHighWide",0.5,0.25,0.03,0.01,1,0.754177613000138
75,336,"FarHighNarrow",0.2,0.15,0.1,0.0125892541179417,0,0.955894273000013
75,337,"FarLowNarrow",0.1,0.15,0.2,0.0158489319246111,0,0.690041284000472
75,338,"FarHighWide",0.5,0.25,0.03,0.00794328234724281,0,1.16827155499959
75,339,"FarLowWide",0.03,0.25,0.5,0.0251188643150958,1,0.638470231000611
75,340,"FarHighWide",0.5,0.25,0.03,0.01,0,0.50068808800097
75,341,"Constant",0.1,0.1,0.1,0.0158489319246111,1,0.642817343999923
75,342,"FarLowNarrow",0.1,0.15,0.2,0.0199526231496888,1,0.66611618099887
75,343,"FarHighWide",0.5,0.25,0.03,0.0125892541179417,1,1.08511063500009
75,344,"FarHighWide",0.5,0.25,0.03,0.01,1,0.595026619999771
75,345,"FarHighNarrow",0.2,0.15,0.1,0.0158489319246111,0,0.577286562000154
75,346,"FarLowWide",0.03,0.25,0.5,0.0199526231496888,0,0.444429581000804
75,348,"Constant",0.1,0.1,0.1,0.0125892541179417,0,0.613220482999168
75,349,"FarLowNarrow",0.1,0.15,0.2,0.0158489319246111,0,0.659942493999552
75,350,"FarLowNarrow",0.1,0.15,0.2,0.0199526231496888,0,0.577965337999558
75,351,"Constant",0.1,0.1,0.1,0.0158489319246111,1,0.591139468999245
75,352,"FarHighNarrow",0.2,0.15,0.1,0.0199526231496888,1,0.893357956998443
75,353,"ThreeLinesControl",0,0,0.1,0.0125892541179417,0,0.483537587000683
75,354,"FarHighWide",0.5,0.25,0.03,0.00794328234724281,0,1.21777028200086
75,355,"FarHighNarrow",0.2,0.15,0.1,0.0158489319246111,0,0.871648915999685
75,356,"FarHighNarrow",0.2,0.15,0.1,0.0199526231496888,0,0.454000793999512
75,358,"Constant",0.1,0.1,0.1,0.0125892541179417,0,0.890448162999746
75,359,"FarLowNarrow",0.1,0.15,0.2,0.0251188643150958,1,0.558380761998706
75,360,"Constant",0.1,0.1,0.1,0.0158489319246111,0,0.649847912000041
75,361,"FarHighWide",0.5,0.25,0.03,0.01,0,0.335805020000407
75,362,"ThreeLinesControl",0,0,0.1,0.0158489319246111,0,0.605312994999622
75,363,"ThreeLinesControl",0,0,0.1,0.0199526231496888,1,0.619165043999601
75,365,"FarHighWide",0.5,0.25,0.03,0.0125892541179417,0,0.631825460999607
75,366,"FarHighWide",0.5,0.25,0.03,0.0158489319246111,1,0.390480927999306
75,367,"Constant",0.1,0.1,0.1,0.0199526231496888,1,0.324530568001137
75,368,"FarHighWide",0.5,0.25,0.03,0.0125892541179417,1,0.49586698100029
75,369,"FarLowWide",0.03,0.25,0.5,0.0251188643150958,1,0.446107763000327
75,371,"Constant",0.1,0.1,0.1,0.0158489319246111,1,0.535464214000967
75,372,"FarHighWide",0.5,0.25,0.03,0.01,0,0.589314285
75,373,"ThreeLinesControl",0,0,0.1,0.0158489319246111,1,0.792385160000777
75,374,"FarHighNarrow",0.2,0.15,0.1,0.0251188643150958,1,0.678369000999737
75,375,"ThreeLinesControl",0,0,0.1,0.0125892541179417,0,0.628990959001385
75,376,"FarLowNarrow",0.1,0.15,0.2,0.0199526231496888,1,0.546763611999268
75,377,"Constant",0.1,0.1,0.1,0.0125892541179417,0,0.553232566999213
75,378,"Constant",0.1,0.1,0.1,0.0158489319246111,1,0.519586786000218
75,379,"FarHighNarrow",0.2,0.15,0.1,0.0199526231496888,1,0.429406164999818
75,380,"FarHighWide",0.5,0.25,0.03,0.0125892541179417,0,0.490861086000223
75,381,"FarHighWide",0.5,0.25,0.03,0.0158489319246111,1,0.410116401000778
75,382,"FarLowNarrow",0.1,0.15,0.2,0.0158489319246111,0,0.328251140999782
75,383,"FarHighNarrow",0.2,0.15,0.1,0.0158489319246111,0,0.350516772999981
75,384,"ThreeLinesControl",0,0,0.1,0.0158489319246111,0,0.362157744000797
75,385,"FarLowWide",0.03,0.25,0.5,0.0199526231496888,1,0.343446995000704
75,386,"FarLowWide",0.03,0.25,0.5,0.0158489319246111,1,0.269500219999827
75,387,"ThreeLinesControl",0,0,0.1,0.0199526231496888,0,0.488767837001433
75,388,"ThreeLinesControl",0,0,0.1,0.0251188643150958,1,0.470781410998825
75,389,"FarHighWide",0.5,0.25,0.03,0.0125892541179417,0,0.475116932999299
75,390,"ThreeLinesControl",0,0,0.1,0.0199526231496888,1,0.913074641999629
75,391,"FarHighNarrow",0.2,0.15,0.1,0.0199526231496888,1,0.671236932999818
75,392,"FarLowWide",0.03,0.25,0.5,0.0125892541179417,0,0.388297880999744
75,394,"FarLowWide",0.03,0.25,0.5,0.0158489319246111,0,0.320836236000105
75,395,"FarLowWide",0.03,0.25,0.5,0.0199526231496888,1,0.558768528000655
75,396,"FarLowNarrow",0.1,0.15,0.2,0.0199526231496888,1,0.605406108999887
75,397,"FarHighNarrow",0.2,0.15,0.1,0.0158489319246111,1,0.345919559998947
75,398,"FarLowWide",0.03,0.25,0.5,0.0158489319246111,0,0.521312003998901
75,399,"FarLowWide",0.03,0.25,0.5,0.0199526231496888,1,0.423213510999631
75,400,"ThreeLinesControl",0,0,0.1,0.0158489319246111,1,0.498495163999905
75,401,"FarHighNarrow",0.2,0.15,0.1,0.0125892541179417,1,0.560688727000525
75,402,"FarLowWide",0.03,0.25,0.5,0.0158489319246111,1,0.661826654999459
75,403,"FarLowWide",0.03,0.25,0.5,0.0125892541179417,0,0.505230987999312
75,405,"FarLowWide",0.03,0.25,0.5,0.0158489319246111,1,1.01333363599952
75,406,"ThreeLinesControl",0,0,0.1,0.0125892541179417,1,0.7531318679994
75,407,"FarHighNarrow",0.2,0.15,0.1,0.01,1,0.935601089000556
75,408,"Constant",0.1,0.1,0.1,0.0125892541179417,0,0.485594375999426
75,409,"FarHighWide",0.5,0.25,0.03,0.0158489319246111,1,0.747678400999575
75,410,"Constant",0.1,0.1,0.1,0.0158489319246111,1,0.458163010000135
75,412,"FarHighNarrow",0.2,0.15,0.1,0.00794328234724281,0,0.733462325999426
75,413,"FarHighNarrow",0.2,0.15,0.1,0.01,0,0.619700757000828
75,414,"FarHighNarrow",0.2,0.15,0.1,0.0125892541179417,0,0.464823927000907
75,415,"FarHighWide",0.5,0.25,0.03,0.0125892541179417,1,0.664104343999497
75,416,"FarLowNarrow",0.1,0.15,0.2,0.0158489319246111,1,0.394837989000735
75,418,"Constant",0.1,0.1,0.1,0.0125892541179417,1,0.678235383000356
75,419,"ThreeLinesControl",0,0,0.1,0.01,0,0.62535121899964
75,421,"FarLowNarrow",0.1,0.15,0.2,0.0125892541179417,1,0.837638891000097
75,423,"FarLowNarrow",0.1,0.15,0.2,0.01,0,0.392049598000085
75,424,"FarLowNarrow",0.1,0.15,0.2,0.0125892541179417,0,0.29426723799952
75,425,"Constant",0.1,0.1,0.1,0.01,1,0.484386471998732
75,426,"FarLowWide",0.03,0.25,0.5,0.0125892541179417,1,0.410611309998785
75,427,"ThreeLinesControl",0,0,0.1,0.0125892541179417,0,0.464417576000415
75,428,"Constant",0.1,0.1,0.1,0.00794328234724281,0,0.526853384000788
75,429,"FarLowNarrow",0.1,0.15,0.2,0.0158489319246111,1,0.540924154000095
75,430,"Constant",0.1,0.1,0.1,0.01,1,0.353924276998441
75,431,"FarHighWide",0.5,0.25,0.03,0.01,0,0.608146771000975
75,432,"FarHighWide",0.5,0.25,0.03,0.0125892541179417,0,0.549478570999781
75,433,"FarLowNarrow",0.1,0.15,0.2,0.0125892541179417,0,0.481656939000459
75,434,"Constant",0.1,0.1,0.1,0.00794328234724281,0,0.358473883999977
75,435,"FarHighNarrow",0.2,0.15,0.1,0.0158489319246111,0,99
75,436,"FarLowWide",0.03,0.25,0.5,0.01,0,0.367961309999373
75,437,"FarLowNarrow",0.1,0.15,0.2,0.0158489319246111,1,0.357914382000672
75,438,"FarHighNarrow",0.2,0.15,0.1,0.0199526231496888,1,0.691183984999952
75,439,"Constant",0.1,0.1,0.1,0.01,1,0.817417280999507
75,440,"FarHighWide",0.5,0.25,0.03,0.0158489319246111,1,0.622667559999172
75,442,"FarLowWide",0.03,0.25,0.5,0.0125892541179417,0,0.442997288999322
75,443,"ThreeLinesControl",0,0,0.1,0.0158489319246111,1,0.672823631999563
75,444,"FarHighWide",0.5,0.25,0.03,0.0125892541179417,0,0.640559372999633
75,445,"ThreeLinesControl",0,0,0.1,0.0125892541179417,0,0.461085678000018
75,446,"FarLowWide",0.03,0.25,0.5,0.0158489319246111,1,0.401998569999705
75,447,"Constant",0.1,0.1,0.1,0.00794328234724281,1,1.20069760899969
75,448,"FarHighNarrow",0.2,0.15,0.1,0.0158489319246111,1,0.559978674000376
75,449,"FarHighNarrow",0.2,0.15,0.1,0.0125892541179417,1,0.538698341000782
75,450,"Constant",0.1,0.1,0.1,0.00630957344480193,0,0.54518077099965
75,451,"FarLowNarrow",0.1,0.15,0.2,0.0125892541179417,1,0.695040200998847
75,452,"FarHighWide",0.5,0.25,0.03,0.0158489319246111,1,0.834533205001208
75,453,"FarHighNarrow",0.2,0.15,0.1,0.01,0,0.776588425000227
75,454,"ThreeLinesControl",0,0,0.1,0.0158489319246111,1,1.06054958300047
75,455,"FarLowWide",0.03,0.25,0.5,0.0125892541179417,0,0.706986299999699
75,456,"FarHighWide",0.5,0.25,0.03,0.0125892541179417,0,0.737066450999919
75,457,"FarHighNarrow",0.2,0.15,0.1,0.0125892541179417,0,99
75,458,"ThreeLinesControl",0,0,0.1,0.0125892541179417,0,0.677195456000845
75,459,"FarLowNarrow",0.1,0.15,0.2,0.01,0,0.643643338999027
75,460,"FarHighNarrow",0.2,0.15,0.1,0.0158489319246111,1,0.513776726998913
75,461,"Constant",0.1,0.1,0.1,0.00794328234724281,1,0.489157075999174
75,462,"Constant",0.1,0.1,0.1,0.00630957344480193,0,0.389101963999565
75,463,"FarLowNarrow",0.1,0.15,0.2,0.0125892541179417,0,0.427114146001259
75,464,"FarLowNarrow",0.1,0.15,0.2,0.0158489319246111,0,0.569092376001208
75,465,"FarHighNarrow",0.2,0.15,0.1,0.0125892541179417,0,0.612461704000452
75,466,"FarHighNarrow",0.2,0.15,0.1,0.0158489319246111,1,0.362391196998942
75,467,"FarHighWide",0.5,0.25,0.03,0.0158489319246111,1,0.503638698000941
75,468,"FarHighWide",0.5,0.25,0.03,0.0125892541179417,1,0.546541367999453
75,469,"FarHighWide",0.5,0.25,0.03,0.01,1,0.408777147000364
75,470,"FarLowNarrow",0.1,0.15,0.2,0.0199526231496888,1,0.342961571999695
75,472,"Constant",0.1,0.1,0.1,0.00794328234724281,0,0.618515126001512
75,473,"FarLowNarrow",0.1,0.15,0.2,0.0158489319246111,1,0.440496703000463
75,475,"FarLowWide",0.03,0.25,0.5,0.0158489319246111,0,0.32476923700051
75,477,"Constant",0.1,0.1,0.1,0.01,0,0.289524247000372
75,479,"ThreeLinesControl",0,0,0.1,0.0158489319246111,0,0.325088621999384
75,480,"FarHighWide",0.5,0.25,0.03,0.00794328234724281,0,1.03074522700081
75,481,"Constant",0.1,0.1,0.1,0.0125892541179417,0,0.340916006000043
75,482,"ThreeLinesControl",0,0,0.1,0.0199526231496888,0,0.242864526000631
75,483,"ThreeLinesControl",0,0,0.1,0.0251188643150958,0,0.326328025999828
75,484,"FarLowNarrow",0.1,0.15,0.2,0.0125892541179417,0,0.308349828001155
75,485,"FarHighWide",0.5,0.25,0.03,0.01,0,0.538527975999386
75,486,"FarHighNarrow",0.2,0.15,0.1,0.0125892541179417,0,0.309466638998856
75,487,"FarHighNarrow",0.2,0.15,0.1,0.0158489319246111,0,0.243905562001601
75,488,"FarLowWide",0.03,0.25,0.5,0.0199526231496888,0,0.384895852999762
75,489,"FarLowNarrow",0.1,0.15,0.2,0.0158489319246111,1,0.583134204000089
75,490,"ThreeLinesControl",0,0,0.1,0.0316227766016838,1,0.389289066999481
75,491,"FarHighWide",0.5,0.25,0.03,0.0125892541179417,0,0.475370840000323
75,492,"ThreeLinesControl",0,0,0.1,0.0251188643150958,1,0.768611106001117
75,493,"FarLowNarrow",0.1,0.15,0.2,0.0125892541179417,0,0.430563109999639
75,494,"FarLowNarrow",0.1,0.15,0.2,0.0158489319246111,1,0.565189901999474
75,495,"FarHighWide",0.5,0.25,0.03,0.0158489319246111,0,0.835852179998255
75,496,"FarLowWide",0.03,0.25,0.5,0.0251188643150958,1,0.747431019999567
75,497,"Constant",0.1,0.1,0.1,0.0158489319246111,1,0.735316432999753
75,498,"FarHighNarrow",0.2,0.15,0.1,0.0199526231496888,0,99
75,499,"FarHighNarrow",0.2,0.15,0.1,0.0251188643150958,1,0.671404796999923
75,500,"FarHighWide",0.5,0.25,0.03,0.0199526231496888,1,0.533660687999145
75,501,"FarLowWide",0.03,0.25,0.5,0.0199526231496888,0,0.355722835000051
75,502,"ThreeLinesControl",0,0,0.1,0.0199526231496888,1,0.694930390000081
75,503,"FarLowNarrow",0.1,0.15,0.2,0.0125892541179417,0,0.373453757998504
75,504,"FarHighNarrow",0.2,0.15,0.1,0.0199526231496888,1,0.363443046999237
75,505,"FarLowNarrow",0.1,0.15,0.2,0.0158489319246111,1,0.569489556999542
75,506,"ThreeLinesControl",0,0,0.1,0.0158489319246111,1,0.3987615620008
75,508,"FarHighWide",0.5,0.25,0.03,0.0158489319246111,0,1.05090566999934
75,509,"Constant",0.1,0.1,0.1,0.0125892541179417,1,0.489170084998477
75,510,"FarHighWide",0.5,0.25,0.03,0.0199526231496888,1,0.351564971000698
75,511,"FarLowWide",0.03,0.25,0.5,0.0251188643150958,0,0.494499328999154
75,512,"FarLowWide",0.03,0.25,0.5,0.0316227766016838,1,0.436769497000569
75,513,"FarHighWide",0.5,0.25,0.03,0.0158489319246111,0,99
75,514,"FarHighWide",0.5,0.25,0.03,0.0199526231496888,0,0.558915259000059
75,515,"FarHighWide",0.5,0.25,0.03,0.0251188643150958,1,0.490038691001246
75,516,"Constant",0.1,0.1,0.1,0.01,0,0.632667711999602
75,517,"FarLowNarrow",0.1,0.15,0.2,0.0125892541179417,0,0.349932377999721
75,519,"ThreeLinesControl",0,0,0.1,0.0125892541179417,1,0.527728453000236
75,520,"FarHighNarrow",0.2,0.15,0.1,0.0158489319246111,0,0.324451082999076
75,521,"Constant",0.1,0.1,0.1,0.0125892541179417,1,0.714787446999253
75,522,"FarHighWide",0.5,0.25,0.03,0.0199526231496888,0,99
75,525,"Constant",0.1,0.1,0.1,0.01,0,0.45048796500123
75,526,"FarHighNarrow",0.2,0.15,0.1,0.0199526231496888,0,0.521925723000095
75,527,"FarLowWide",0.03,0.25,0.5,0.0251188643150958,1,0.383880694000254
75,528,"FarLowWide",0.03,0.25,0.5,0.0199526231496888,1,0.646894806001001
75,530,"FarHighWide",0.5,0.25,0.03,0.0251188643150958,0,1.2482085190004
75,531,"FarLowWide",0.03,0.25,0.5,0.0158489319246111,0,0.758232128999225
75,532,"FarLowNarrow",0.1,0.15,0.2,0.0158489319246111,0,0.64160006199927
75,533,"Constant",0.1,0.1,0.1,0.0125892541179417,0,0.423528166998949
75,534,"FarLowNarrow",0.1,0.15,0.2,0.0199526231496888,0,0.434634678000293
75,535,"FarHighWide",0.5,0.25,0.03,0.0316227766016838,1,0.376846928000305
75,536,"Constant",0.1,0.1,0.1,0.0158489319246111,0,0.614932847000091
75,537,"FarHighNarrow",0.2,0.15,0.1,0.0251188643150958,0,0.349266442000953
75,538,"ThreeLinesControl",0,0,0.1,0.01,0,0.30735136399926
75,539,"Constant",0.1,0.1,0.1,0.0199526231496888,1,0.488369877000878
75,540,"Constant",0.1,0.1,0.1,0.0158489319246111,1,0.366579602001366
75,541,"Constant",0.1,0.1,0.1,0.0125892541179417,0,0.500767142999393
75,542,"FarLowNarrow",0.1,0.15,0.2,0.0251188643150958,1,0.627007339999182
75,543,"Constant",0.1,0.1,0.1,0.0158489319246111,1,0.545295235000594
75,545,"FarHighWide",0.5,0.25,0.03,0.0251188643150958,0,0.387460903999454
75,546,"FarLowNarrow",0.1,0.15,0.2,0.0199526231496888,0,0.529811571001119
75,547,"FarLowWide",0.03,0.25,0.5,0.0199526231496888,0,0.607655847999922
75,548,"FarLowNarrow",0.1,0.15,0.2,0.0251188643150958,1,0.282890877000682
75,549,"FarLowWide",0.03,0.25,0.5,0.0251188643150958,1,0.249008447000961
75,550,"FarHighWide",0.5,0.25,0.03,0.0316227766016838,1,0.197671748001085
75,551,"FarLowNarrow",0.1,0.15,0.2,0.0199526231496888,0,0.666205600999092
75,552,"FarHighNarrow",0.2,0.15,0.1,0.0316227766016838,1,0.432472558999507
75,553,"FarLowWide",0.03,0.25,0.5,0.0199526231496888,1,0.302455904999078
75,554,"FarHighWide",0.5,0.25,0.03,0.0251188643150958,1,0.404771491999782
75,555,"FarLowNarrow",0.1,0.15,0.2,0.0251188643150958,1,0.29897832899951
75,556,"FarHighWide",0.5,0.25,0.03,0.0199526231496888,1,0.360077150000507
75,557,"ThreeLinesControl",0,0,0.1,0.0125892541179417,0,0.286110944000029
75,558,"Constant",0.1,0.1,0.1,0.0125892541179417,1,0.572448883000106
75,560,"FarHighNarrow",0.2,0.15,0.1,0.0251188643150958,1,0.473072155999034
75,561,"Constant",0.1,0.1,0.1,0.01,1,0.436214219998874
75,562,"ThreeLinesControl",0,0,0.1,0.0158489319246111,0,0.883054754000113
75,565,"FarHighNarrow",0.2,0.15,0.1,0.0199526231496888,1,0.777628624999124
75,566,"FarLowNarrow",0.1,0.15,0.2,0.0199526231496888,1,0.487677482999061
75,567,"ThreeLinesControl",0,0,0.1,0.0199526231496888,1,0.347892621000938
75,568,"ThreeLinesControl",0,0,0.1,0.0158489319246111,1,0.433782305999557
75,569,"FarLowNarrow",0.1,0.15,0.2,0.0158489319246111,0,0.462894749000043
75,571,"FarLowWide",0.03,0.25,0.5,0.0158489319246111,0,0.483180245000767
75,572,"FarLowNarrow",0.1,0.15,0.2,0.0199526231496888,0,0.393384074001006
75,573,"FarLowNarrow",0.1,0.15,0.2,0.0251188643150958,1,0.406418878001205
75,574,"FarLowNarrow",0.1,0.15,0.2,0.0199526231496888,1,0.276411431999804
75,575,"FarHighNarrow",0.2,0.15,0.1,0.0158489319246111,1,0.282376061999457
75,576,"Constant",0.1,0.1,0.1,0.00794328234724281,1,0.264999331000581
75,577,"FarHighNarrow",0.2,0.15,0.1,0.0125892541179417,0,0.607452213000215
75,578,"FarLowNarrow",0.1,0.15,0.2,0.0158489319246111,1,0.587361404999683
75,579,"FarHighNarrow",0.2,0.15,0.1,0.0158489319246111,1,0.416262834000008
75,580,"FarLowNarrow",0.1,0.15,0.2,0.0125892541179417,0,0.324540900999637
75,581,"ThreeLinesControl",0,0,0.1,0.0125892541179417,0,0.47371610799928
75,582,"Constant",0.1,0.1,0.1,0.00630957344480193,1,0.447732194001219
75,584,"ThreeLinesControl",0,0,0.1,0.0158489319246111,0,0.362055840998437
75,585,"FarLowWide",0.03,0.25,0.5,0.0199526231496888,0,0.472181628998442
75,586,"Constant",0.1,0.1,0.1,0.00501187233627272,0,0.398241793000125
75,587,"FarHighNarrow",0.2,0.15,0.1,0.0125892541179417,0,0.380695537000065
75,589,"FarHighWide",0.5,0.25,0.03,0.0158489319246111,1,0.50387942999987
75,590,"FarLowWide",0.03,0.25,0.5,0.0251188643150958,1,0.406150561000686
75,591,"FarHighNarrow",0.2,0.15,0.1,0.0158489319246111,1,0.41937463999966
75,592,"FarHighWide",0.5,0.25,0.03,0.0125892541179417,0,0.553423280000061
75,593,"FarHighWide",0.5,0.25,0.03,0.0158489319246111,0,0.473009821000232
75,594,"FarLowNarrow",0.1,0.15,0.2,0.0158489319246111,0,0.499577089000013
75,595,"FarHighNarrow",0.2,0.15,0.1,0.0125892541179417,0,0.352558018999844
75,596,"Constant",0.1,0.1,0.1,0.00630957344480193,0,0.446838534000563
75,597,"ThreeLinesControl",0,0,0.1,0.0199526231496888,1,0.434349692000978
75,598,"Constant",0.1,0.1,0.1,0.00794328234724281,0,0.416278508000687
75,599,"Constant",0.1,0.1,0.1,0.01,0,0.340405703000215
75,600,"Constant",0.1,0.1,0.1,0.0125892541179417,0,0.400825308001004
75,601,"FarHighWide",0.5,0.25,0.03,0.0199526231496888,0,0.396253226999761
75,602,"FarHighNarrow",0.2,0.15,0.1,0.0158489319246111,0,0.434434892998979
75,603,"FarHighNarrow",0.2,0.15,0.1,0.0199526231496888,0,0.456489771000633
75,604,"FarLowWide",0.03,0.25,0.5,0.0199526231496888,0,0.443614310001067
75,605,"Constant",0.1,0.1,0.1,0.0158489319246111,1,0.473949683000683
75,606,"FarHighNarrow",0.2,0.15,0.1,0.0251188643150958,1,0.270813476001422
75,607,"Constant",0.1,0.1,0.1,0.0125892541179417,0,0.315793640000265
75,608,"FarLowWide",0.03,0.25,0.5,0.0251188643150958,1,0.441952809000213
75,609,"FarLowNarrow",0.1,0.15,0.2,0.0199526231496888,1,0.352378874000351
75,610,"FarLowNarrow",0.1,0.15,0.2,0.0158489319246111,1,0.558656930999859
75,611,"ThreeLinesControl",0,0,0.1,0.0158489319246111,0,0.684670772001482
75,612,"FarLowNarrow",0.1,0.15,0.2,0.0125892541179417,0,0.610722266999801
75,613,"Constant",0.1,0.1,0.1,0.0158489319246111,1,0.882454657999915
75,615,"FarHighNarrow",0.2,0.15,0.1,0.0199526231496888,0,0.51590132399906
75,616,"FarLowWide",0.03,0.25,0.5,0.0199526231496888,0,0.49822881199907
75,617,"ThreeLinesControl",0,0,0.1,0.0199526231496888,0,0.39742316399861
75,618,"FarLowNarrow",0.1,0.15,0.2,0.0158489319246111,1,0.812187993000407
75,619,"ThreeLinesControl",0,0,0.1,0.0251188643150958,1,0.705090419000044
75,621,"ThreeLinesControl",0,0,0.1,0.0199526231496888,1,0.51537904900033
75,622,"Constant",0.1,0.1,0.1,0.0125892541179417,1,0.560103238000011
75,623,"FarLowWide",0.03,0.25,0.5,0.0251188643150958,0,0.965305912999611
75,624,"FarLowWide",0.03,0.25,0.5,0.0316227766016838,1,0.491643695999301
75,626,"ThreeLinesControl",0,0,0.1,0.0158489319246111,0,0.543996866999805
75,628,"FarHighNarrow",0.2,0.15,0.1,0.0251188643150958,1,0.51640148000115
75,629,"FarHighWide",0.5,0.25,0.03,0.0251188643150958,1,0.482480528999076
75,630,"FarLowWide",0.03,0.25,0.5,0.0251188643150958,0,0.553467842999453
75,631,"ThreeLinesControl",0,0,0.1,0.0199526231496888,1,0.573610344999906
75,632,"FarLowWide",0.03,0.25,0.5,0.0316227766016838,1,0.403852471999926
75,633,"FarLowNarrow",0.1,0.15,0.2,0.0125892541179417,1,0.465953908000301
75,634,"FarHighWide",0.5,0.25,0.03,0.0199526231496888,1,0.452958343001228
75,635,"FarHighWide",0.5,0.25,0.03,0.0158489319246111,1,0.395198960999551
75,636,"Constant",0.1,0.1,0.1,0.01,1,0.486378265999519
75,638,"FarHighWide",0.5,0.25,0.03,0.0125892541179417,0,0.593671830998574
75,639,"FarHighNarrow",0.2,0.15,0.1,0.0199526231496888,0,0.422785093998755
75,640,"FarLowNarrow",0.1,0.15,0.2,0.01,0,0.332970908000789
75,641,"FarLowWide",0.03,0.25,0.5,0.0251188643150958,1,0.354689555999357
75,642,"FarHighWide",0.5,0.25,0.03,0.0158489319246111,1,0.921308289000081
75,643,"ThreeLinesControl",0,0,0.1,0.0158489319246111,1,0.855405920001431
75,645,"FarHighWide",0.5,0.25,0.03,0.0125892541179417,0,0.644756207999308
75,646,"Constant",0.1,0.1,0.1,0.00794328234724281,0,0.443278490000012
75,647,"FarLowNarrow",0.1,0.15,0.2,0.0125892541179417,0,0.34200761700049
75,648,"FarLowNarrow",0.1,0.15,0.2,0.0158489319246111,1,0.644894179000403
75,649,"FarHighNarrow",0.2,0.15,0.1,0.0251188643150958,1,0.402179897000678
75,650,"FarLowWide",0.03,0.25,0.5,0.0199526231496888,0,0.301380015000177
75,651,"FarHighWide",0.5,0.25,0.03,0.0158489319246111,0,0.443502390999129
75,652,"FarLowNarrow",0.1,0.15,0.2,0.0125892541179417,0,0.329650469999251
75,653,"Constant",0.1,0.1,0.1,0.01,0,0.236889400001019
75,654,"FarLowNarrow",0.1,0.15,0.2,0.0158489319246111,0,0.242954155000916
75,655,"FarHighNarrow",0.2,0.15,0.1,0.0199526231496888,0,0.216106542999114
75,656,"Constant",0.1,0.1,0.1,0.0125892541179417,0,0.302217988999473
75,657,"Constant",0.1,0.1,0.1,0.0158489319246111,0,0.27651932399931
75,658,"Constant",0.1,0.1,0.1,0.0199526231496888,0,0.218567541000084
75,659,"FarLowNarrow",0.1,0.15,0.2,0.0199526231496888,0,0.344770398000037
75,660,"ThreeLinesControl",0,0,0.1,0.0125892541179417,0,0.365901291001137
75,661,"FarLowNarrow",0.1,0.15,0.2,0.0251188643150958,0,0.349419910000506
75,662,"FarLowWide",0.03,0.25,0.5,0.0251188643150958,0,0.459486871000991
75,663,"FarHighNarrow",0.2,0.15,0.1,0.0251188643150958,1,0.31916371600164
75,664,"FarLowNarrow",0.1,0.15,0.2,0.0316227766016838,1,0.237504008000542
75,665,"Constant",0.1,0.1,0.1,0.0251188643150958,1,0.235496020000937
75,666,"FarHighNarrow",0.2,0.15,0.1,0.0199526231496888,1,0.230930590998469
75,667,"FarHighNarrow",0.2,0.15,0.1,0.0158489319246111,1,0.30831136300003
75,668,"ThreeLinesControl",0,0,0.1,0.0158489319246111,0,0.443165067999871
75,669,"FarHighWide",0.5,0.25,0.03,0.0199526231496888,0,0.438287322000178
75,670,"FarLowWide",0.03,0.25,0.5,0.0316227766016838,1,0.372491779999109
75,671,"FarLowWide",0.03,0.25,0.5,0.0251188643150958,1,0.281532630999209
75,672,"FarLowWide",0.03,0.25,0.5,0.0199526231496888,0,0.511548847998711
75,673,"ThreeLinesControl",0,0,0.1,0.0199526231496888,0,0.413584111998716
75,674,"Constant",0.1,0.1,0.1,0.0199526231496888,1,0.316050977000486
75,675,"FarLowWide",0.03,0.25,0.5,0.0251188643150958,1,0.337106073000541
75,676,"FarLowNarrow",0.1,0.15,0.2,0.0251188643150958,1,0.303035912998894
75,677,"FarHighNarrow",0.2,0.15,0.1,0.0125892541179417,0,0.606709466999746
75,678,"FarLowWide",0.03,0.25,0.5,0.0199526231496888,0,0.252770577999399
75,679,"FarLowWide",0.03,0.25,0.5,0.0251188643150958,0,0.283092235000368
75,680,"FarHighNarrow",0.2,0.15,0.1,0.0158489319246111,0,0.255298726000547
75,681,"FarHighWide",0.5,0.25,0.03,0.0251188643150958,1,0.349109499000406
75,682,"FarHighNarrow",0.2,0.15,0.1,0.0199526231496888,1,0.360082881999915
75,683,"FarLowWide",0.03,0.25,0.5,0.0316227766016838,1,0.582335066001178
75,684,"FarLowNarrow",0.1,0.15,0.2,0.0199526231496888,0,0.636511135000546
75,685,"FarLowWide",0.03,0.25,0.5,0.0251188643150958,0,0.479345601999739
75,686,"ThreeLinesControl",0,0,0.1,0.0251188643150958,0,0.461697626000387
75,687,"FarLowWide",0.03,0.25,0.5,0.0316227766016838,0,0.603713213000447
75,688,"FarLowNarrow",0.1,0.15,0.2,0.0251188643150958,0,0.674092524999651
75,689,"ThreeLinesControl",0,0,0.1,0.0316227766016838,1,0.319164151998848
75,690,"Constant",0.1,0.1,0.1,0.0158489319246111,1,0.325365439000961
75,691,"FarHighWide",0.5,0.25,0.03,0.0199526231496888,1,0.571548223999343
75,692,"FarLowNarrow",0.1,0.15,0.2,0.0316227766016838,1,0.376629847000004
75,693,"FarLowNarrow",0.1,0.15,0.2,0.0251188643150958,1,0.327066297999409
75,694,"FarHighNarrow",0.2,0.15,0.1,0.0158489319246111,0,0.494125982999321
75,695,"FarHighWide",0.5,0.25,0.03,0.0158489319246111,0,0.72461671200108
75,696,"Constant",0.1,0.1,0.1,0.0125892541179417,0,99
75,697,"FarLowNarrow",0.1,0.15,0.2,0.0199526231496888,0,99
75,698,"FarHighWide",0.5,0.25,0.03,0.0199526231496888,0,99
75,700,"FarLowWide",0.03,0.25,0.5,0.0398107170553497,0,99
75,701,"ThreeLinesControl",0,0,0.1,0.0251188643150958,0,99
75,702,"FarLowWide",0.03,0.25,0.5,0.0501187233627272,0,99
75,703,"FarHighWide",0.5,0.25,0.03,0.0251188643150958,0,99
75,704,"ThreeLinesControl",0,0,0.1,0.0316227766016838,0,99
75,705,"FarHighNarrow",0.2,0.15,0.1,0.0199526231496888,0,99
75,706,"FarLowWide",0.03,0.25,0.5,0.0630957344480193,0,99
75,707,"Constant",0.1,0.1,0.1,0.0158489319246111,0,99
75,709,"ThreeLinesControl",0,0,0.1,0.0398107170553497,0,99
75,710,"Constant",0.1,0.1,0.1,0.0199526231496888,0,99
75,711,"FarHighNarrow",0.2,0.15,0.1,0.0251188643150958,0,99
75,712,"Constant",0.1,0.1,0.1,0.0251188643150958,0,99
75,713,"FarHighWide",0.5,0.25,0.03,0.0316227766016838,0,99
75,714,"FarHighWide",0.5,0.25,0.03,0.0398107170553497,0,99
75,715,"Constant",0.1,0.1,0.1,0.0316227766016838,0,99
75,717,"FarLowNarrow",0.1,0.15,0.2,0.0251188643150958,0,99
75,718,"FarLowWide",0.03,0.25,0.5,0.0794328234724281,0,99
75,719,"FarHighWide",0.5,0.25,0.03,0.0501187233627272,0,99
75,720,"ThreeLinesControl",0,0,0.1,0.0501187233627272,0,1.09009496199906
75,721,"ThreeLinesControl",0,0,0.1,0.0630957344480193,0,0.935065751998991
75,722,"FarHighNarrow",0.2,0.15,0.1,0.0316227766016838,0,0.452774006998879
75,723,"FarLowWide",0.03,0.25,0.5,0.1,0,0.289183015000162
75,725,"FarHighWide",0.5,0.25,0.03,0.0630957344480193,1,0.509264455000448
75,726,"FarLowWide",0.03,0.25,0.5,0.1,1,0.371483207001802
75,727,"FarLowWide",0.03,0.25,0.5,0.0794328234724282,1,0.353824140000143
75,728,"FarLowWide",0.03,0.25,0.5,0.0630957344480193,1,0.343979011000556
75,729,"ThreeLinesControl",0,0,0.1,0.0794328234724281,1,0.381886754999869
75,730,"FarLowWide",0.03,0.25,0.5,0.0501187233627272,1,0.468417879999834
75,731,"ThreeLinesControl",0,0,0.1,0.0630957344480193,1,0.289645142000154
75,732,"FarHighWide",0.5,0.25,0.03,0.0501187233627272,1,0.264875406999636
75,733,"Constant",0.1,0.1,0.1,0.0398107170553497,1,0.253560892999303
75,734,"FarHighNarrow",0.2,0.15,0.1,0.0398107170553497,1,0.208744357998512
75,735,"FarHighWide",0.5,0.25,0.03,0.0398107170553497,1,0.206993888999932
75,736,"FarLowNarrow",0.1,0.15,0.2,0.0316227766016838,1,0.349120045999371
75,737,"ThreeLinesControl",0,0,0.1,0.0501187233627272,1,0.328010504001213
75,738,"Constant",0.1,0.1,0.1,0.0316227766016838,1,0.277447472999484
75,739,"Constant",0.1,0.1,0.1,0.0251188643150958,1,0.178584893999869
75,741,"FarHighWide",0.5,0.25,0.03,0.0316227766016838,1,0.3178715009999
75,743,"Constant",0.1,0.1,0.1,0.0199526231496888,0,0.298216646999208
75,745,"Constant",0.1,0.1,0.1,0.0251188643150958,0,0.215565331000107
75,746,"ThreeLinesControl",0,0,0.1,0.0398107170553497,1,0.324566515999322
75,747,"Constant",0.1,0.1,0.1,0.0316227766016838,1,0.267207517001225
75,748,"ThreeLinesControl",0,0,0.1,0.0316227766016838,1,0.278892439000629
75,749,"ThreeLinesControl",0,0,0.1,0.0251188643150958,0,0.420291955000721
75,750,"Constant",0.1,0.1,0.1,0.0251188643150958,0,0.414957906999916
75,751,"FarHighNarrow",0.2,0.15,0.1,0.0316227766016838,0,99
75,752,"FarLowNarrow",0.1,0.15,0.2,0.0251188643150958,0,99
75,753,"Constant",0.1,0.1,0.1,0.0316227766016838,0,99
75,755,"FarHighWide",0.5,0.25,0.03,0.0251188643150958,0,99
75,756,"FarLowWide",0.03,0.25,0.5,0.0398107170553497,0,99
75,757,"FarHighWide",0.5,0.25,0.03,0.0316227766016838,0,99
75,758,"FarLowNarrow",0.1,0.15,0.2,0.0316227766016838,0,99
75,760,"FarHighNarrow",0.2,0.15,0.1,0.0398107170553497,0,99
75,761,"ThreeLinesControl",0,0,0.1,0.0316227766016838,0,99
75,762,"Constant",0.1,0.1,0.1,0.0398107170553497,0,99
75,763,"FarLowWide",0.03,0.25,0.5,0.0501187233627272,0,99
75,765,"Constant",0.1,0.1,0.1,0.0501187233627272,0,99
75,766,"FarLowNarrow",0.1,0.15,0.2,0.0398107170553497,0,99
75,767,"FarHighWide",0.5,0.25,0.03,0.0398107170553497,0,99
75,769,"ThreeLinesControl",0,0,0.1,0.0398107170553497,0,99
75,770,"FarHighWide",0.5,0.25,0.03,0.0501187233627272,0,99
75,771,"FarHighWide",0.5,0.25,0.03,0.0630957344480193,0,99
75,772,"FarHighNarrow",0.2,0.15,0.1,0.0501187233627272,0,99
75,773,"ThreeLinesControl",0,0,0.1,0.0501187233627272,0,99
75,774,"FarHighNarrow",0.2,0.15,0.1,0.0630957344480193,0,99
75,775,"FarLowNarrow",0.1,0.15,0.2,0.0501187233627272,0,99
75,776,"FarHighNarrow",0.2,0.15,0.1,0.0794328234724281,0,99
75,777,"FarLowNarrow",0.1,0.15,0.2,0.0630957344480193,0,99
75,778,"FarLowNarrow",0.1,0.15,0.2,0.0794328234724281,0,99
75,779,"FarLowWide",0.03,0.25,0.5,0.0630957344480193,0,99
75,780,"FarHighWide",0.5,0.25,0.03,0.0794328234724281,0,99
75,781,"FarHighWide",0.5,0.25,0.03,0.1,0,99
75,782,"Constant",0.1,0.1,0.1,0.0630957344480193,0,99
75,783,"FarLowNarrow",0.1,0.15,0.2,0.1,0,99
75,784,"Constant",0.1,0.1,0.1,0.0794328234724281,0,99
75,785,"FarLowNarrow",0.1,0.15,0.2,0.1,0,99
75,786,"FarLowWide",0.03,0.25,0.5,0.0794328234724281,0,99
75,787,"Constant",0.1,0.1,0.1,0.1,0,99
75,788,"FarLowNarrow",0.1,0.15,0.2,0.1,0,99
75,789,"Constant",0.1,0.1,0.1,0.1,0,99
75,790,"FarLowNarrow",0.1,0.15,0.2,0.1,0,99
75,791,"FarHighNarrow",0.2,0.15,0.1,0.1,0,99
75,792,"ThreeLinesControl",0,0,0.1,0.0630957344480193,0,99
75,793,"FarLowNarrow",0.1,0.15,0.2,0.1,0,99
75,794,"Constant",0.1,0.1,0.1,0.1,0,99
75,795,"FarHighNarrow",0.2,0.15,0.1,0.1,0,99
75,796,"FarLowNarrow",0.1,0.15,0.2,0.1,0,99
75,798,"FarHighWide",0.5,0.25,0.03,0.1,0,99
75,799,"ThreeLinesControl",0,0,0.1,0.0794328234724281,0,99
75,800,"FarLowNarrow",0.1,0.15,0.2,0.1,0,99
75,801,"FarHighNarrow",0.2,0.15,0.1,0.1,0,99
75,802,"FarHighNarrow",0.2,0.15,0.1,0.1,0,99
75,803,"FarHighNarrow",0.2,0.15,0.1,0.1,0,99
75,804,"FarHighWide",0.5,0.25,0.03,0.1,0,99
75,805,"FarHighNarrow",0.2,0.15,0.1,0.1,0,99
75,806,"FarHighNarrow",0.2,0.15,0.1,0.1,0,99
75,807,"FarHighWide",0.5,0.25,0.03,0.1,0,99
75,808,"ThreeLinesControl",0,0,0.1,0.1,0,99
75,809,"FarHighWide",0.5,0.25,0.03,0.1,0,99
75,810,"FarHighWide",0.5,0.25,0.03,0.1,0,99
75,811,"FarHighWide",0.5,0.25,0.03,0.1,0,99
75,812,"FarLowWide",0.03,0.25,0.5,0.1,0,99
75,813,"ThreeLinesControl",0,0,0.1,0.1,0,99
75,814,"FarLowWide",0.03,0.25,0.5,0.1,0,99
75,815,"FarHighNarrow",0.2,0.15,0.1,0.1,0,99
75,816,"FarHighNarrow",0.2,0.15,0.1,0.1,0,99
75,817,"Constant",0.1,0.1,0.1,0.1,0,99
75,818,"ThreeLinesControl",0,0,0.1,0.1,0,99
75,820,"Constant",0.1,0.1,0.1,0.1,0,99
75,821,"FarHighNarrow",0.2,0.15,0.1,0.1,0,99
75,822,"FarLowNarrow",0.1,0.15,0.2,0.1,0,99
75,823,"FarHighWide",0.5,0.25,0.03,0.1,0,99
75,824,"FarHighNarrow",0.2,0.15,0.1,0.1,0,99
75,825,"FarLowWide",0.03,0.25,0.5,0.1,0,99
75,826,"FarLowNarrow",0.1,0.15,0.2,0.1,0,99
75,828,"FarHighNarrow",0.2,0.15,0.1,0.1,0,99
75,830,"FarHighNarrow",0.2,0.15,0.1,0.1,0,99
75,831,"FarLowNarrow",0.1,0.15,0.2,0.1,0,99
75,832,"FarHighNarrow",0.2,0.15,0.1,0.1,0,99
75,833,"ThreeLinesControl",0,0,0.1,0.1,0,99
75,834,"FarHighNarrow",0.2,0.15,0.1,0.1,0,99
75,836,"Constant",0.1,0.1,0.1,0.1,0,99
75,837,"Constant",0.1,0.1,0.1,0.1,0,99
75,839,"FarHighWide",0.5,0.25,0.03,0.1,0,99
76,0,"FarHighWide",0.5,0.25,0.03,0.1,1,0.552383488000487
76,1,"FarHighNarrow",0.2,0.15,0.1,0.1,1,0.603629166998871
76,2,"FarHighNarrow",0.2,0.15,0.1,0.0794328234724282,1,0.481593778999013
76,3,"ThreeLinesControl",0,0,0.1,0.1,1,0.612888966001265
76,4,"FarLowWide",0.03,0.25,0.5,0.1,1,0.40296854799999
76,5,"FarLowNarrow",0.1,0.15,0.2,0.1,1,0.473191642000529
76,6,"ThreeLinesControl",0,0,0.1,0.0794328234724282,1,0.420358310000665
76,7,"FarHighWide",0.5,0.25,0.03,0.0794328234724282,1,0.554315306999342
76,8,"FarLowNarrow",0.1,0.15,0.2,0.0794328234724282,1,0.457679049000944
76,9,"FarHighWide",0.5,0.25,0.03,0.0630957344480193,1,0.414727817000312
76,10,"Constant",0.1,0.1,0.1,0.1,1,0.500884690000021
76,11,"ThreeLinesControl",0,0,0.1,0.0630957344480193,1,0.38601572799962
76,12,"FarHighWide",0.5,0.25,0.03,0.0501187233627272,1,0.384131966999121
76,13,"FarLowWide",0.03,0.25,0.5,0.0794328234724282,1,0.430117706999226
76,14,"FarLowNarrow",0.1,0.15,0.2,0.0630957344480193,1,0.428603822001605
76,15,"Constant",0.1,0.1,0.1,0.0794328234724282,1,0.378801033000855
76,16,"FarHighWide",0.5,0.25,0.03,0.0398107170553497,1,0.26590418700107
76,17,"ThreeLinesControl",0,0,0.1,0.0501187233627272,1,0.34857196899975
76,20,"FarHighWide",0.5,0.25,0.03,0.0316227766016838,1,0.548415166998893
76,21,"FarHighNarrow",0.2,0.15,0.1,0.0630957344480193,1,0.42614310999852
76,22,"Constant",0.1,0.1,0.1,0.0630957344480193,1,0.405932951000068
76,24,"FarLowNarrow",0.1,0.15,0.2,0.0501187233627272,1,0.521997646999807
76,25,"FarHighNarrow",0.2,0.15,0.1,0.0501187233627272,1,0.416048936000152
76,26,"FarHighNarrow",0.2,0.15,0.1,0.0398107170553497,1,0.422264631999496
76,28,"ThreeLinesControl",0,0,0.1,0.0398107170553497,1,0.401315920000343
76,29,"FarHighWide",0.5,0.25,0.03,0.0251188643150958,1,0.647634984001343
76,31,"ThreeLinesControl",0,0,0.1,0.0316227766016838,1,0.317310853999516
76,32,"FarHighNarrow",0.2,0.15,0.1,0.0316227766016838,1,0.435383104999346
76,33,"FarHighNarrow",0.2,0.15,0.1,0.0251188643150958,1,0.295271854000021
76,34,"FarHighNarrow",0.2,0.15,0.1,0.0199526231496888,1,0.388283307000165
76,35,"FarLowWide",0.03,0.25,0.5,0.0630957344480193,1,0.314314737999666
76,36,"Constant",0.1,0.1,0.1,0.0501187233627272,1,0.277441979000287
76,37,"FarLowWide",0.03,0.25,0.5,0.0501187233627272,1,0.420038045000183
76,38,"FarHighWide",0.5,0.25,0.03,0.0199526231496888,1,0.448016993999772
76,39,"FarHighNarrow",0.2,0.15,0.1,0.0158489319246111,0,0.430150504998892
76,40,"FarLowNarrow",0.1,0.15,0.2,0.0398107170553497,1,0.331183988000703
76,41,"Constant",0.1,0.1,0.1,0.0398107170553497,1,0.481621786999312
76,42,"FarLowNarrow",0.1,0.15,0.2,0.0316227766016838,1,0.399483504999807
76,43,"FarHighWide",0.5,0.25,0.03,0.0158489319246111,1,0.389769254999919
76,44,"ThreeLinesControl",0,0,0.1,0.0251188643150958,0,99
76,45,"FarHighNarrow",0.2,0.15,0.1,0.0199526231496888,1,0.45807307999894
76,46,"FarLowNarrow",0.1,0.15,0.2,0.0251188643150958,1,0.583248685001308
76,47,"Constant",0.1,0.1,0.1,0.0316227766016838,1,0.366803326998706
76,48,"Constant",0.1,0.1,0.1,0.0251188643150958,1,0.380645749000905
76,49,"Constant",0.1,0.1,0.1,0.0199526231496888,1,0.32775069499985
76,50,"FarHighWide",0.5,0.25,0.03,0.0125892541179417,1,0.341459579998627
76,51,"Constant",0.1,0.1,0.1,0.0158489319246111,1,0.275790888001211
76,52,"Constant",0.1,0.1,0.1,0.0125892541179417,1,0.294914658001289
76,53,"FarLowWide",0.03,0.25,0.5,0.0398107170553497,1,0.429487108000103
76,55,"FarLowNarrow",0.1,0.15,0.2,0.0199526231496888,0,0.373525041999528
76,57,"FarLowWide",0.03,0.25,0.5,0.0316227766016838,1,0.425741131000905
76,58,"ThreeLinesControl",0,0,0.1,0.0316227766016838,1,0.327975534000871
76,59,"ThreeLinesControl",0,0,0.1,0.0251188643150958,1,0.446029324999472
76,60,"ThreeLinesControl",0,0,0.1,0.0199526231496888,0,0.444282249000025
76,61,"FarHighWide",0.5,0.25,0.03,0.01,0,0.633459938999295
76,63,"FarLowNarrow",0.1,0.15,0.2,0.0251188643150958,1,0.517812263000451
76,64,"Constant",0.1,0.1,0.1,0.01,1,0.580059461000928
76,65,"FarHighNarrow",0.2,0.15,0.1,0.0158489319246111,1,0.41023985100037
76,66,"FarLowNarrow",0.1,0.15,0.2,0.0199526231496888,1,0.478071677000116
76,67,"Constant",0.1,0.1,0.1,0.00794328234724281,0,0.411215358000845
76,68,"Constant",0.1,0.1,0.1,0.01,0,0.510529705999943
76,69,"FarHighWide",0.5,0.25,0.03,0.0125892541179417,0,0.676652037998792
76,70,"FarLowWide",0.03,0.25,0.5,0.0251188643150958,1,0.690713155001504
76,72,"FarHighNarrow",0.2,0.15,0.1,0.0125892541179417,1,0.460986206000598
76,73,"FarHighNarrow",0.2,0.15,0.1,0.01,1,0.37920910000139
76,74,"FarHighNarrow",0.2,0.15,0.1,0.00794328234724281,0,0.537299552999684
76,75,"FarLowWide",0.03,0.25,0.5,0.0199526231496888,0,0.46349262700096
76,76,"FarLowWide",0.03,0.25,0.5,0.0251188643150958,0,0.396662618999471
76,77,"Constant",0.1,0.1,0.1,0.0125892541179417,0,0.499087614000018
76,78,"FarHighWide",0.5,0.25,0.03,0.0158489319246111,1,0.58481915000084
76,79,"ThreeLinesControl",0,0,0.1,0.0251188643150958,1,0.391676803999871
76,80,"Constant",0.1,0.1,0.1,0.0158489319246111,1,0.525173168000038
76,81,"FarLowWide",0.03,0.25,0.5,0.0316227766016838,1,0.349024548000671
76,82,"FarLowNarrow",0.1,0.15,0.2,0.0158489319246111,1,0.367490032000205
76,83,"FarHighWide",0.5,0.25,0.03,0.0125892541179417,1,0.565663522998875
76,84,"FarLowNarrow",0.1,0.15,0.2,0.0125892541179417,0,0.584893339000701
76,86,"FarHighWide",0.5,0.25,0.03,0.01,0,0.580926525000905
76,87,"ThreeLinesControl",0,0,0.1,0.0199526231496888,1,0.465338848000101
76,88,"ThreeLinesControl",0,0,0.1,0.0158489319246111,0,0.80725201200039
76,89,"FarLowNarrow",0.1,0.15,0.2,0.0158489319246111,1,0.453586966001239
76,90,"FarHighWide",0.5,0.25,0.03,0.0125892541179417,1,0.602657769999496
76,91,"FarHighWide",0.5,0.25,0.03,0.01,1,0.544537484000102
76,92,"FarLowNarrow",0.1,0.15,0.2,0.0125892541179417,1,0.559046080001281
76,93,"FarLowNarrow",0.1,0.15,0.2,0.01,0,0.494661454999004
76,94,"ThreeLinesControl",0,0,0.1,0.0199526231496888,0,0.499394066000605
76,95,"ThreeLinesControl",0,0,0.1,0.0251188643150958,1,0.49657334999938
76,97,"FarLowNarrow",0.1,0.15,0.2,0.0125892541179417,1,0.509123441001066
76,98,"FarLowWide",0.03,0.25,0.5,0.0251188643150958,0,0.43979120700169
76,99,"ThreeLinesControl",0,0,0.1,0.0199526231496888,1,0.678141420999964
76,100,"FarLowNarrow",0.1,0.15,0.2,0.01,0,0.715785383999901
76,101,"FarHighWide",0.5,0.25,0.03,0.00794328234724281,1,0.639496726000289
76,102,"FarHighNarrow",0.2,0.15,0.1,0.01,1,0.453422913000395
76,103,"FarLowNarrow",0.1,0.15,0.2,0.0125892541179417,1,0.38551668800028
76,104,"FarHighNarrow",0.2,0.15,0.1,0.00794328234724281,0,0.527706857999874
76,105,"FarHighNarrow",0.2,0.15,0.1,0.01,0,0.477835917999982
76,106,"FarHighWide",0.5,0.25,0.03,0.00630957344480193,0,0.492261989998951
76,107,"ThreeLinesControl",0,0,0.1,0.0158489319246111,0,0.386210131000553
76,108,"FarLowNarrow",0.1,0.15,0.2,0.01,1,0.479380288999891
76,109,"FarHighNarrow",0.2,0.15,0.1,0.0125892541179417,1,0.366977558000144
76,110,"ThreeLinesControl",0,0,0.1,0.0199526231496888,1,0.460354666000057
76,111,"FarLowNarrow",0.1,0.15,0.2,0.00794328234724281,1,0.627547539999796
76,112,"ThreeLinesControl",0,0,0.1,0.0158489319246111,0,0.696049390000553
76,113,"FarHighNarrow",0.2,0.15,0.1,0.01,1,0.526189371001237
76,114,"FarLowNarrow",0.1,0.15,0.2,0.00630957344480193,0,0.745257200998822
76,115,"Constant",0.1,0.1,0.1,0.0125892541179417,0,0.607430918998944
76,116,"FarHighNarrow",0.2,0.15,0.1,0.00794328234724281,0,0.645553918000587
76,117,"FarLowNarrow",0.1,0.15,0.2,0.00794328234724281,0,0.640721040001154
76,119,"FarHighNarrow",0.2,0.15,0.1,0.01,0,0.572222999000587
76,120,"ThreeLinesControl",0,0,0.1,0.0199526231496888,0,0.490076252001018
76,121,"Constant",0.1,0.1,0.1,0.0158489319246111,0,0.537406699999337
76,122,"FarHighWide",0.5,0.25,0.03,0.00794328234724281,0,0.343616569000005
76,123,"Constant",0.1,0.1,0.1,0.0199526231496888,0,0.486869680000382
76,124,"FarHighWide",0.5,0.25,0.03,0.01,1,0.442765839001368
76,126,"FarLowWide",0.03,0.25,0.5,0.0316227766016838,1,0.684253319001073
76,128,"FarHighNarrow",0.2,0.15,0.1,0.0125892541179417,1,1.13544399800048
76,129,"ThreeLinesControl",0,0,0.1,0.0251188643150958,1,0.491487519000657
76,130,"FarLowWide",0.03,0.25,0.5,0.0251188643150958,1,0.648750459000439
76,132,"FarLowNarrow",0.1,0.15,0.2,0.01,0,0.732042654000907
76,133,"FarLowNarrow",0.1,0.15,0.2,0.0125892541179417,0,0.401879649998591
76,134,"FarLowNarrow",0.1,0.15,0.2,0.0158489319246111,0,0.376064492000296
76,135,"FarHighWide",0.5,0.25,0.03,0.00794328234724281,1,0.573214565998569
76,136,"FarLowNarrow",0.1,0.15,0.2,0.0199526231496888,0,0.515619898000296
76,137,"FarLowWide",0.03,0.25,0.5,0.0199526231496888,0,0.418787156999315
76,138,"ThreeLinesControl",0,0,0.1,0.0199526231496888,1,0.5292789239993
76,139,"FarHighNarrow",0.2,0.15,0.1,0.01,1,0.656143860000157
76,141,"FarHighWide",0.5,0.25,0.03,0.00630957344480193,0,0.761327630998494
76,142,"FarHighWide",0.5,0.25,0.03,0.00794328234724281,0,0.468489589999081
76,143,"FarLowWide",0.03,0.25,0.5,0.0251188643150958,0,0.402437761000328
76,146,"ThreeLinesControl",0,0,0.1,0.0158489319246111,0,0.394022165999559
76,147,"ThreeLinesControl",0,0,0.1,0.0199526231496888,1,0.551977760000227
76,148,"FarLowNarrow",0.1,0.15,0.2,0.0251188643150958,0,0.502381034000791
76,149,"FarHighNarrow",0.2,0.15,0.1,0.00794328234724281,0,0.419517943999381
76,150,"FarHighNarrow",0.2,0.15,0.1,0.01,1,0.761623761998635
76,151,"ThreeLinesControl",0,0,0.1,0.0158489319246111,1,0.631794028000513
76,152,"Constant",0.1,0.1,0.1,0.0251188643150958,1,0.462017722000382
76,153,"Constant",0.1,0.1,0.1,0.0199526231496888,0,0.484279270998741
76,154,"FarHighWide",0.5,0.25,0.03,0.01,0,0.499553023000772
76,155,"FarHighWide",0.5,0.25,0.03,0.0125892541179417,0,0.809574565999355
76,156,"FarLowNarrow",0.1,0.15,0.2,0.0316227766016838,1,0.349625689999812
76,157,"FarLowNarrow",0.1,0.15,0.2,0.0251188643150958,0,0.611814035999487
76,158,"FarLowNarrow",0.1,0.15,0.2,0.0316227766016838,1,0.393860910000512
76,159,"ThreeLinesControl",0,0,0.1,0.0125892541179417,1,0.556985308001458
76,160,"FarHighWide",0.5,0.25,0.03,0.0158489319246111,1,0.386100337998869
76,161,"Constant",0.1,0.1,0.1,0.0251188643150958,1,0.470385199998418
76,162,"Constant",0.1,0.1,0.1,0.0199526231496888,1,0.564482227999179
76,163,"ThreeLinesControl",0,0,0.1,0.01,0,0.777518266000698
76,164,"FarHighNarrow",0.2,0.15,0.1,0.00794328234724281,0,0.527553157999137
76,165,"FarLowWide",0.03,0.25,0.5,0.0316227766016838,0,0.389903956000126
76,166,"FarHighWide",0.5,0.25,0.03,0.0125892541179417,1,0.740114514999732
76,167,"FarLowNarrow",0.1,0.15,0.2,0.0251188643150958,1,0.610034820001601
76,168,"FarHighWide",0.5,0.25,0.03,0.01,1,0.599288395000258
76,169,"FarHighWide",0.5,0.25,0.03,0.00794328234724281,0,0.429780271999334
76,171,"FarHighWide",0.5,0.25,0.03,0.01,1,0.5708315640004
76,172,"FarHighNarrow",0.2,0.15,0.1,0.01,0,0.773935105999044
76,173,"FarHighWide",0.5,0.25,0.03,0.00794328234724281,0,0.468065527998988
76,174,"ThreeLinesControl",0,0,0.1,0.0125892541179417,0,0.474148925999543
76,175,"FarHighWide",0.5,0.25,0.03,0.01,0,0.413587004000874
76,177,"FarHighNarrow",0.2,0.15,0.1,0.0125892541179417,0,0.344459935999112
76,178,"FarLowWide",0.03,0.25,0.5,0.0398107170553497,1,0.388887355000406
76,179,"ThreeLinesControl",0,0,0.1,0.0158489319246111,1,0.554976254999929
76,181,"Constant",0.1,0.1,0.1,0.0158489319246111,0,0.438218776000213
76,182,"FarHighNarrow",0.2,0.15,0.1,0.0158489319246111,0,0.572516068001278
76,183,"FarLowWide",0.03,0.25,0.5,0.0316227766016838,1,0.914573716001541
76,184,"ThreeLinesControl",0,0,0.1,0.0125892541179417,1,0.74482997800078
76,185,"FarHighNarrow",0.2,0.15,0.1,0.0199526231496888,1,0.550948091000464
76,186,"FarLowNarrow",0.1,0.15,0.2,0.0199526231496888,1,0.357294843999625
76,188,"FarLowNarrow",0.1,0.15,0.2,0.0158489319246111,0,0.415295169999808
76,189,"FarHighWide",0.5,0.25,0.03,0.0125892541179417,0,0.436278100998607
76,190,"FarHighWide",0.5,0.25,0.03,0.0158489319246111,0,0.451547464999749
76,191,"FarHighWide",0.5,0.25,0.03,0.0199526231496888,1,0.725855945000148
76,192,"FarHighNarrow",0.2,0.15,0.1,0.0158489319246111,0,0.427908812000169
76,193,"FarHighWide",0.5,0.25,0.03,0.0158489319246111,1,0.529848108999431
76,194,"FarHighNarrow",0.2,0.15,0.1,0.0199526231496888,1,0.526178267000432
76,195,"ThreeLinesControl",0,0,0.1,0.01,0,0.539508906000265
76,197,"FarLowWide",0.03,0.25,0.5,0.0251188643150958,0,0.359668662000331
76,198,"FarLowWide",0.03,0.25,0.5,0.0316227766016838,0,0.341570989001411
76,199,"FarHighNarrow",0.2,0.15,0.1,0.0158489319246111,0,0.347936053000012
76,200,"FarLowWide",0.03,0.25,0.5,0.0398107170553497,1,0.546285692000311
76,202,"FarHighWide",0.5,0.25,0.03,0.0125892541179417,1,0.622527333000107
76,203,"FarLowNarrow",0.1,0.15,0.2,0.0199526231496888,0,0.516736853000111
76,204,"ThreeLinesControl",0,0,0.1,0.0125892541179417,0,0.564294945999791
76,205,"FarHighNarrow",0.2,0.15,0.1,0.0199526231496888,1,0.566946083999937
76,206,"FarLowNarrow",0.1,0.15,0.2,0.0251188643150958,1,0.668992242999593
76,207,"Constant",0.1,0.1,0.1,0.0199526231496888,1,0.728394146999563
76,209,"FarHighNarrow",0.2,0.15,0.1,0.0158489319246111,0,0.436520127999756
76,210,"Constant",0.1,0.1,0.1,0.0158489319246111,0,0.35149087299942
76,211,"FarHighNarrow",0.2,0.15,0.1,0.0199526231496888,1,0.373819582999204
76,212,"ThreeLinesControl",0,0,0.1,0.0158489319246111,1,0.403767034000339
76,213,"Constant",0.1,0.1,0.1,0.0199526231496888,1,0.410031323999647
76,214,"FarLowNarrow",0.1,0.15,0.2,0.0199526231496888,0,0.431210796999949
76,215,"ThreeLinesControl",0,0,0.1,0.0125892541179417,0,0.349026468000375
76,217,"FarLowNarrow",0.1,0.15,0.2,0.0251188643150958,1,0.473434713998358
76,218,"FarLowWide",0.03,0.25,0.5,0.0316227766016838,0,0.471748150999701
76,219,"Constant",0.1,0.1,0.1,0.0158489319246111,1,0.798199787999692
76,220,"FarLowWide",0.03,0.25,0.5,0.0398107170553497,1,0.420287480001207
76,221,"FarHighWide",0.5,0.25,0.03,0.01,1,0.568204666000383
76,222,"FarHighWide",0.5,0.25,0.03,0.00794328234724281,0,0.502354173999265
76,223,"ThreeLinesControl",0,0,0.1,0.0158489319246111,0,0.603336555001079
76,224,"Constant",0.1,0.1,0.1,0.0125892541179417,0,0.43839348399888
76,225,"Constant",0.1,0.1,0.1,0.0158489319246111,0,0.492732225999134
76,226,"ThreeLinesControl",0,0,0.1,0.0199526231496888,0,0.550942620000569
76,227,"FarLowWide",0.03,0.25,0.5,0.0316227766016838,1,0.41327057199851
76,228,"FarHighWide",0.5,0.25,0.03,0.01,1,0.475067110999589
76,229,"Constant",0.1,0.1,0.1,0.0199526231496888,0,0.481423755001742
76,230,"FarHighWide",0.5,0.25,0.03,0.00794328234724281,1,0.71149044699996
76,231,"ThreeLinesControl",0,0,0.1,0.0251188643150958,0,0.460628513001211
76,232,"FarLowWide",0.03,0.25,0.5,0.0251188643150958,1,0.474842477999118
76,233,"Constant",0.1,0.1,0.1,0.0251188643150958,1,0.544399423999494
76,234,"FarLowNarrow",0.1,0.15,0.2,0.0199526231496888,1,0.495683606999592
76,235,"FarLowWide",0.03,0.25,0.5,0.0199526231496888,0,0.365410316000634
76,236,"FarLowNarrow",0.1,0.15,0.2,0.0158489319246111,0,0.41144998100026
76,237,"FarLowNarrow",0.1,0.15,0.2,0.0199526231496888,0,0.302407272998607
76,238,"FarLowWide",0.03,0.25,0.5,0.0251188643150958,1,0.380720772998757
76,239,"FarHighNarrow",0.2,0.15,0.1,0.0158489319246111,0,0.562766494000243
76,240,"FarLowWide",0.03,0.25,0.5,0.0199526231496888,0,0.46314400799929
76,241,"FarLowNarrow",0.1,0.15,0.2,0.0251188643150958,0,0.421567329000027
76,242,"FarHighWide",0.5,0.25,0.03,0.00630957344480193,0,0.595851342999595
76,243,"FarHighNarrow",0.2,0.15,0.1,0.0199526231496888,0,0.442307233000975
76,244,"FarLowNarrow",0.1,0.15,0.2,0.0316227766016838,1,0.432991281000795
76,245,"FarHighNarrow",0.2,0.15,0.1,0.0251188643150958,0,0.455075347999809
76,246,"Constant",0.1,0.1,0.1,0.0199526231496888,1,0.301220452000052
76,247,"FarLowWide",0.03,0.25,0.5,0.0251188643150958,0,0.360332610000114
76,248,"FarLowWide",0.03,0.25,0.5,0.0316227766016838,1,0.910546647999581
76,249,"FarLowWide",0.03,0.25,0.5,0.0251188643150958,0,0.540615806999995
76,250,"FarHighNarrow",0.2,0.15,0.1,0.0316227766016838,1,0.375914643000215
76,251,"FarLowNarrow",0.1,0.15,0.2,0.0251188643150958,1,1.07801281200045
76,252,"ThreeLinesControl",0,0,0.1,0.0316227766016838,1,0.323156135000318
76,253,"ThreeLinesControl",0,0,0.1,0.0251188643150958,1,0.416224890999729
76,254,"FarHighWide",0.5,0.25,0.03,0.00794328234724281,1,0.806643637000889
76,255,"FarLowWide",0.03,0.25,0.5,0.0316227766016838,0,0.516556815999138
76,256,"ThreeLinesControl",0,0,0.1,0.0199526231496888,0,0.506906513999638
76,257,"Constant",0.1,0.1,0.1,0.0158489319246111,0,0.551928828999735
76,258,"Constant",0.1,0.1,0.1,0.0199526231496888,0,0.567338531000132
76,259,"Constant",0.1,0.1,0.1,0.0251188643150958,0,0.461215197001366
76,260,"Constant",0.1,0.1,0.1,0.0316227766016838,1,0.563353319999806
76,262,"Constant",0.1,0.1,0.1,0.0251188643150958,1,0.446541367999089
76,263,"FarHighNarrow",0.2,0.15,0.1,0.0251188643150958,1,0.482729598999867
76,264,"FarLowWide",0.03,0.25,0.5,0.0398107170553497,0,0.383994731000712
76,265,"FarLowNarrow",0.1,0.15,0.2,0.0199526231496888,1,0.501816060001147
76,266,"ThreeLinesControl",0,0,0.1,0.0251188643150958,1,0.329274054998677
76,267,"FarLowNarrow",0.1,0.15,0.2,0.0158489319246111,1,0.287233107999782
76,268,"FarLowWide",0.03,0.25,0.5,0.0501187233627272,1,0.461582109999654
76,269,"Constant",0.1,0.1,0.1,0.0199526231496888,1,0.762565689999974
76,270,"FarLowWide",0.03,0.25,0.5,0.0398107170553497,1,0.336878512000112
76,271,"Constant",0.1,0.1,0.1,0.0158489319246111,0,0.645827951000683
76,272,"Constant",0.1,0.1,0.1,0.0199526231496888,1,0.467812947001221
76,273,"ThreeLinesControl",0,0,0.1,0.0199526231496888,1,0.490367258998958
76,274,"FarHighWide",0.5,0.25,0.03,0.00630957344480193,0,0.545749954999337
76,275,"Constant",0.1,0.1,0.1,0.0158489319246111,1,0.487544576999426
76,276,"FarLowWide",0.03,0.25,0.5,0.0316227766016838,1,0.414723453000988
76,277,"FarLowWide",0.03,0.25,0.5,0.0251188643150958,1,0.5631307069998
76,280,"FarHighNarrow",0.2,0.15,0.1,0.0199526231496888,1,0.466375260000859
76,281,"FarLowWide",0.03,0.25,0.5,0.0199526231496888,1,0.528616558998692
76,282,"FarHighWide",0.5,0.25,0.03,0.00794328234724281,0,0.483371451000494
76,283,"FarLowWide",0.03,0.25,0.5,0.0158489319246111,0,0.367584685000111
76,284,"FarLowNarrow",0.1,0.15,0.2,0.0125892541179417,0,0.477987976000804
76,286,"FarLowNarrow",0.1,0.15,0.2,0.0158489319246111,1,0.401073700000779
76,287,"FarLowWide",0.03,0.25,0.5,0.0199526231496888,0,0.431501896000555
76,288,"FarLowWide",0.03,0.25,0.5,0.0251188643150958,1,0.485504791000494
76,289,"FarLowNarrow",0.1,0.15,0.2,0.0125892541179417,0,0.514945845001421
76,290,"FarLowNarrow",0.1,0.15,0.2,0.0158489319246111,1,0.538072719999036
76,291,"FarLowNarrow",0.1,0.15,0.2,0.0125892541179417,0,0.720243766001659
76,292,"ThreeLinesControl",0,0,0.1,0.0158489319246111,1,0.42347665700072
76,293,"Constant",0.1,0.1,0.1,0.0125892541179417,1,0.618107259999306
76,294,"ThreeLinesControl",0,0,0.1,0.0125892541179417,0,0.632303037000383
76,295,"FarLowNarrow",0.1,0.15,0.2,0.0158489319246111,0,0.438473604999672
76,296,"FarHighNarrow",0.2,0.15,0.1,0.0158489319246111,1,0.393307296000785
76,297,"FarLowWide",0.03,0.25,0.5,0.0199526231496888,0,0.399859888000719
76,298,"Constant",0.1,0.1,0.1,0.01,0,0.702145909999672
76,299,"FarHighNarrow",0.2,0.15,0.1,0.0125892541179417,0,0.624970314000166
76,300,"ThreeLinesControl",0,0,0.1,0.0158489319246111,0,0.399332425000466
76,301,"ThreeLinesControl",0,0,0.1,0.0199526231496888,1,0.356515942001352
76,303,"FarLowWide",0.03,0.25,0.5,0.0251188643150958,0,0.448767851999946
76,304,"FarLowWide",0.03,0.25,0.5,0.0316227766016838,1,0.517699674999676
76,305,"Constant",0.1,0.1,0.1,0.0125892541179417,0,0.548144459000468
76,307,"FarLowWide",0.03,0.25,0.5,0.0251188643150958,1,0.560534243999427
76,308,"FarHighNarrow",0.2,0.15,0.1,0.0158489319246111,0,0.607578564000505
76,310,"FarHighNarrow",0.2,0.15,0.1,0.0199526231496888,1,0.546916565999709
76,311,"FarHighWide",0.5,0.25,0.03,0.01,0,0.744869225000002
76,312,"FarHighNarrow",0.2,0.15,0.1,0.0158489319246111,1,0.931329998000365
76,313,"FarLowWide",0.03,0.25,0.5,0.0199526231496888,1,0.538257445999989
76,314,"FarHighWide",0.5,0.25,0.03,0.0125892541179417,1,0.455294129998947
76,315,"FarLowNarrow",0.1,0.15,0.2,0.0199526231496888,0,0.537977657000738
76,316,"ThreeLinesControl",0,0,0.1,0.0158489319246111,1,0.648631613999896
76,317,"FarHighNarrow",0.2,0.15,0.1,0.0125892541179417,1,0.542729521001093
76,318,"FarLowNarrow",0.1,0.15,0.2,0.0251188643150958,1,0.451876150000317
76,319,"ThreeLinesControl",0,0,0.1,0.0125892541179417,1,0.602091296999788
76,320,"FarHighWide",0.5,0.25,0.03,0.01,0,0.592298448000292
76,321,"ThreeLinesControl",0,0,0.1,0.01,1,0.678542051000477
76,322,"FarLowNarrow",0.1,0.15,0.2,0.0199526231496888,0,0.532579073998932
76,323,"FarHighNarrow",0.2,0.15,0.1,0.01,1,0.666768007000428
76,324,"FarLowNarrow",0.1,0.15,0.2,0.0251188643150958,1,0.37816924100116
76,325,"Constant",0.1,0.1,0.1,0.0158489319246111,1,0.840334710999741
76,326,"FarHighWide",0.5,0.25,0.03,0.0125892541179417,0,0.468259735000174
76,327,"ThreeLinesControl",0,0,0.1,0.00794328234724281,0,0.40211778199955
76,328,"ThreeLinesControl",0,0,0.1,0.01,0,1.05354138599978
76,329,"FarLowWide",0.03,0.25,0.5,0.0158489319246111,0,0.451378075000321
76,330,"FarHighNarrow",0.2,0.15,0.1,0.00794328234724281,0,0.417084527000043
76,331,"ThreeLinesControl",0,0,0.1,0.0125892541179417,0,0.484011280999766
76,332,"FarHighWide",0.5,0.25,0.03,0.0158489319246111,1,0.442157596999095
76,333,"FarHighWide",0.5,0.25,0.03,0.0125892541179417,0,0.448118285999954
76,334,"FarHighNarrow",0.2,0.15,0.1,0.01,0,99
76,335,"ThreeLinesControl",0,0,0.1,0.0158489319246111,0,0.539643976999287
76,336,"FarLowWide",0.03,0.25,0.5,0.0199526231496888,1,0.593557231999512
76,337,"Constant",0.1,0.1,0.1,0.0125892541179417,0,0.51174649099994
76,338,"ThreeLinesControl",0,0,0.1,0.0199526231496888,1,0.494024025998442
76,339,"FarHighNarrow",0.2,0.15,0.1,0.0125892541179417,0,0.540429042001051
76,340,"FarLowNarrow",0.1,0.15,0.2,0.0199526231496888,0,0.593483802000264
76,341,"FarLowNarrow",0.1,0.15,0.2,0.0251188643150958,0,0.448518273999071
76,342,"FarLowWide",0.03,0.25,0.5,0.0158489319246111,0,0.308281091000026
76,343,"Constant",0.1,0.1,0.1,0.0158489319246111,0,0.297647458000938
76,344,"ThreeLinesControl",0,0,0.1,0.0158489319246111,0,0.319820799000809
76,345,"Constant",0.1,0.1,0.1,0.0199526231496888,0,0.43516284100042
76,346,"FarLowNarrow",0.1,0.15,0.2,0.0316227766016838,0,0.457221051001397
76,347,"FarHighNarrow",0.2,0.15,0.1,0.0158489319246111,1,0.284461466000721
76,348,"FarLowWide",0.03,0.25,0.5,0.0199526231496888,1,0.690075455999249
76,349,"FarHighWide",0.5,0.25,0.03,0.0158489319246111,1,0.760666381998817
76,350,"FarHighWide",0.5,0.25,0.03,0.0125892541179417,1,0.502873482000723
76,351,"FarHighWide",0.5,0.25,0.03,0.01,1,0.347961118999592
76,352,"Constant",0.1,0.1,0.1,0.0251188643150958,0,0.441785336999601
76,353,"FarLowWide",0.03,0.25,0.5,0.0158489319246111,0,0.560149673001433
76,354,"FarLowWide",0.03,0.25,0.5,0.0199526231496888,0,0.510369366000305
76,355,"FarHighNarrow",0.2,0.15,0.1,0.0125892541179417,0,0.436679794000156
76,356,"FarLowNarrow",0.1,0.15,0.2,0.0398107170553497,1,0.458742105000056
76,357,"FarLowWide",0.03,0.25,0.5,0.0251188643150958,1,0.401883405000262
76,358,"FarLowNarrow",0.1,0.15,0.2,0.0316227766016838,1,0.324877818999084
76,359,"FarLowNarrow",0.1,0.15,0.2,0.0251188643150958,0,0.538938699000937
76,360,"Constant",0.1,0.1,0.1,0.0316227766016838,1,0.680181091000122
76,361,"Constant",0.1,0.1,0.1,0.0251188643150958,1,0.429274232999887
76,362,"FarLowWide",0.03,0.25,0.5,0.0199526231496888,0,0.379834125000343
76,363,"FarLowWide",0.03,0.25,0.5,0.0251188643150958,0,0.353527162000319
76,364,"FarLowNarrow",0.1,0.15,0.2,0.0316227766016838,0,0.589618191999762
76,365,"FarLowWide",0.03,0.25,0.5,0.0316227766016838,0,0.362665320000815
76,366,"Constant",0.1,0.1,0.1,0.0199526231496888,1,0.321000461999574
76,367,"FarLowWide",0.03,0.25,0.5,0.0398107170553497,1,0.323845458000505
76,368,"ThreeLinesControl",0,0,0.1,0.0199526231496888,0,0.450345748000473
76,369,"ThreeLinesControl",0,0,0.1,0.0251188643150958,1,0.750589216000662
76,370,"ThreeLinesControl",0,0,0.1,0.0199526231496888,1,0.739986894999674
76,372,"FarLowWide",0.03,0.25,0.5,0.0316227766016838,1,0.535897357000067
76,373,"FarHighWide",0.5,0.25,0.03,0.00794328234724281,1,0.277854938000019
76,374,"FarHighWide",0.5,0.25,0.03,0.00630957344480193,0,0.420287552999071
76,375,"FarLowWide",0.03,0.25,0.5,0.0251188643150958,0,0.362039273000846
76,376,"FarLowNarrow",0.1,0.15,0.2,0.0398107170553497,1,0.488585708999381
76,377,"ThreeLinesControl",0,0,0.1,0.0158489319246111,0,0.438881944000968
76,378,"FarLowNarrow",0.1,0.15,0.2,0.0316227766016838,1,0.509493901001406
76,379,"Constant",0.1,0.1,0.1,0.0158489319246111,1,0.507038415000352
76,380,"FarLowWide",0.03,0.25,0.5,0.0316227766016838,0,0.462259418998656
76,381,"ThreeLinesControl",0,0,0.1,0.0199526231496888,1,0.540456832000928
76,382,"FarHighWide",0.5,0.25,0.03,0.00794328234724281,0,0.530296619999717
76,383,"FarLowNarrow",0.1,0.15,0.2,0.0251188643150958,1,0.57341679899946
76,385,"Constant",0.1,0.1,0.1,0.0125892541179417,0,0.738074983000843
76,387,"FarHighWide",0.5,0.25,0.03,0.01,0,0.659209448998809
76,388,"Constant",0.1,0.1,0.1,0.0158489319246111,1,0.529246305000925
76,389,"FarLowNarrow",0.1,0.15,0.2,0.0199526231496888,0,0.519530644000042
76,391,"FarLowWide",0.03,0.25,0.5,0.0398107170553497,1,0.347889729000599
76,393,"ThreeLinesControl",0,0,0.1,0.0158489319246111,0,0.536069176001547
76,394,"Constant",0.1,0.1,0.1,0.0125892541179417,1,0.445466621000378
76,395,"FarLowWide",0.03,0.25,0.5,0.0316227766016838,0,0.363473203000467
76,396,"FarHighWide",0.5,0.25,0.03,0.0125892541179417,0,0.603139340999405
76,397,"FarLowNarrow",0.1,0.15,0.2,0.0251188643150958,0,0.716950469999574
76,398,"FarLowWide",0.03,0.25,0.5,0.0398107170553497,1,0.386791143999289
76,399,"Constant",0.1,0.1,0.1,0.01,0,1.04594819200065
76,400,"ThreeLinesControl",0,0,0.1,0.0199526231496888,0,0.524096121000184
76,401,"FarLowNarrow",0.1,0.15,0.2,0.0316227766016838,1,0.434398133000286
76,402,"FarLowWide",0.03,0.25,0.5,0.0316227766016838,0,99
76,403,"FarLowNarrow",0.1,0.15,0.2,0.0251188643150958,1,0.428646091000701
76,404,"FarHighNarrow",0.2,0.15,0.1,0.0158489319246111,0,0.594670386999496
76,405,"ThreeLinesControl",0,0,0.1,0.0251188643150958,0,0.505006583998693
76,406,"FarHighWide",0.5,0.25,0.03,0.0158489319246111,1,0.597992536000675
76,407,"FarHighWide",0.5,0.25,0.03,0.0125892541179417,0,0.684357019999879
76,408,"FarHighWide",0.5,0.25,0.03,0.0158489319246111,0,0.44222039899978
76,409,"FarHighWide",0.5,0.25,0.03,0.0199526231496888,0,0.408665942999505
76,410,"Constant",0.1,0.1,0.1,0.0125892541179417,0,0.67767481699957
76,411,"FarLowWide",0.03,0.25,0.5,0.0398107170553497,1,0.483752874000857
76,412,"Constant",0.1,0.1,0.1,0.0158489319246111,1,0.705752990999827
76,414,"FarLowNarrow",0.1,0.15,0.2,0.0199526231496888,0,0.435200122999959
76,415,"FarLowNarrow",0.1,0.15,0.2,0.0251188643150958,1,0.566446131999328
76,416,"Constant",0.1,0.1,0.1,0.0125892541179417,0,0.924576445000639
76,417,"Constant",0.1,0.1,0.1,0.0158489319246111,0,0.442702203001318
76,418,"FarHighWide",0.5,0.25,0.03,0.0251188643150958,0,0.814925380998829
76,419,"ThreeLinesControl",0,0,0.1,0.0316227766016838,1,0.405013005000001
76,420,"FarHighNarrow",0.2,0.15,0.1,0.0199526231496888,0,0.819010883000374
76,421,"FarLowNarrow",0.1,0.15,0.2,0.0199526231496888,0,0.441271921999942
76,422,"FarLowWide",0.03,0.25,0.5,0.0316227766016838,0,0.455567074999635
76,423,"FarHighNarrow",0.2,0.15,0.1,0.0251188643150958,0,0.437400079999861
76,424,"FarHighWide",0.5,0.25,0.03,0.0316227766016838,0,0.562677727999471
76,425,"ThreeLinesControl",0,0,0.1,0.0251188643150958,0,0.369766294999863
76,427,"FarLowWide",0.03,0.25,0.5,0.0398107170553497,1,0.332260721001148
76,428,"FarLowNarrow",0.1,0.15,0.2,0.0251188643150958,1,0.354236937000678
76,429,"FarLowWide",0.03,0.25,0.5,0.0316227766016838,1,0.461353128001065
76,430,"FarHighWide",0.5,0.25,0.03,0.0398107170553497,1,0.435685155998726
76,431,"Constant",0.1,0.1,0.1,0.0199526231496888,1,0.473873638999066
76,432,"ThreeLinesControl",0,0,0.1,0.0316227766016838,1,0.260355037999034
76,433,"FarHighNarrow",0.2,0.15,0.1,0.0316227766016838,1,0.395146676000877
76,434,"FarLowNarrow",0.1,0.15,0.2,0.0199526231496888,1,0.336083365999002
76,435,"Constant",0.1,0.1,0.1,0.0158489319246111,1,0.333316427999307
76,436,"FarLowNarrow",0.1,0.15,0.2,0.0158489319246111,1,0.259226051999576
76,437,"ThreeLinesControl",0,0,0.1,0.0251188643150958,1,0.425480542000514
76,438,"ThreeLinesControl",0,0,0.1,0.0199526231496888,1,0.367850388000079
76,439,"Constant",0.1,0.1,0.1,0.0125892541179417,0,0.526071997999679
76,440,"FarHighNarrow",0.2,0.15,0.1,0.0251188643150958,1,0.428221563999614
76,441,"Constant",0.1,0.1,0.1,0.0158489319246111,1,0.266202159000386
76,443,"FarLowNarrow",0.1,0.15,0.2,0.0125892541179417,0,0.502577171000667
76,444,"Constant",0.1,0.1,0.1,0.0125892541179417,1,0.284631128999536
76,445,"Constant",0.1,0.1,0.1,0.01,0,0.447991039000044
76,446,"FarLowNarrow",0.1,0.15,0.2,0.0158489319246111,1,0.325856105000639
76,447,"FarLowWide",0.03,0.25,0.5,0.0251188643150958,1,0.522924073000468
76,448,"FarLowNarrow",0.1,0.15,0.2,0.0125892541179417,0,0.43036114700044
76,449,"FarLowNarrow",0.1,0.15,0.2,0.0158489319246111,0,0.388467211001625
76,450,"FarHighNarrow",0.2,0.15,0.1,0.0199526231496888,1,0.738455751999936
76,451,"Constant",0.1,0.1,0.1,0.0125892541179417,0,0.495891425000082
76,452,"FarLowWide",0.03,0.25,0.5,0.0199526231496888,0,0.381691972999761
76,453,"FarLowNarrow",0.1,0.15,0.2,0.0199526231496888,0,0.396051272000477
76,454,"FarLowWide",0.03,0.25,0.5,0.0251188643150958,0,0.370280823999565
76,455,"FarLowWide",0.03,0.25,0.5,0.0316227766016838,0,0.830361738999272
76,456,"ThreeLinesControl",0,0,0.1,0.0158489319246111,0,0.629471406999073
76,457,"FarHighNarrow",0.2,0.15,0.1,0.0158489319246111,0,0.403829934999521
76,458,"FarHighNarrow",0.2,0.15,0.1,0.0199526231496888,0,0.370023841998773
76,459,"FarHighNarrow",0.2,0.15,0.1,0.0251188643150958,1,0.35086727000089
76,460,"FarLowNarrow",0.1,0.15,0.2,0.0251188643150958,1,0.548973553999531
76,461,"ThreeLinesControl",0,0,0.1,0.0199526231496888,0,0.522021282999049
76,462,"FarHighWide",0.5,0.25,0.03,0.0316227766016838,1,0.422359782000058
76,463,"FarHighWide",0.5,0.25,0.03,0.0251188643150958,1,0.419479361999038
76,464,"Constant",0.1,0.1,0.1,0.0158489319246111,0,0.734663687000648
76,465,"FarLowWide",0.03,0.25,0.5,0.0398107170553497,1,0.42082828599996
76,466,"Constant",0.1,0.1,0.1,0.0199526231496888,0,0.547020151001561
76,467,"Constant",0.1,0.1,0.1,0.0251188643150958,1,0.552188481000485
76,468,"FarLowNarrow",0.1,0.15,0.2,0.0199526231496888,0,0.902325986000506
76,469,"FarHighWide",0.5,0.25,0.03,0.0199526231496888,1,0.555877910999698
76,470,"FarHighWide",0.5,0.25,0.03,0.0158489319246111,0,0.658666012999674
76,472,"FarLowWide",0.03,0.25,0.5,0.0316227766016838,1,0.383058138000706
76,473,"FarHighNarrow",0.2,0.15,0.1,0.0199526231496888,1,0.661100221999732
76,474,"ThreeLinesControl",0,0,0.1,0.0251188643150958,1,0.42036175100111
76,475,"ThreeLinesControl",0,0,0.1,0.0199526231496888,1,0.312319020000359
76,476,"Constant",0.1,0.1,0.1,0.0199526231496888,1,0.518631315999301
76,477,"FarLowWide",0.03,0.25,0.5,0.0251188643150958,1,0.61187042399979
76,478,"FarLowWide",0.03,0.25,0.5,0.0199526231496888,1,0.455583016000674
76,479,"FarHighWide",0.5,0.25,0.03,0.0199526231496888,1,0.581980037000903
76,480,"FarLowNarrow",0.1,0.15,0.2,0.0251188643150958,1,0.698301746999277
76,482,"FarHighWide",0.5,0.25,0.03,0.0158489319246111,0,0.6636455200005
76,483,"ThreeLinesControl",0,0,0.1,0.0158489319246111,1,0.642602050998903
76,484,"ThreeLinesControl",0,0,0.1,0.0125892541179417,0,0.560419685998568
76,485,"FarHighNarrow",0.2,0.15,0.1,0.0158489319246111,0,0.958969564000654
76,486,"FarLowWide",0.03,0.25,0.5,0.0158489319246111,0,0.369985273999191
76,487,"Constant",0.1,0.1,0.1,0.0158489319246111,1,0.656294182999773
76,488,"FarHighNarrow",0.2,0.15,0.1,0.0199526231496888,1,0.419261298999118
76,489,"FarHighNarrow",0.2,0.15,0.1,0.0158489319246111,1,0.529395576000752
76,490,"FarHighWide",0.5,0.25,0.03,0.0199526231496888,0,0.655540272000508
76,491,"FarLowNarrow",0.1,0.15,0.2,0.0199526231496888,0,0.701956699998846
76,492,"FarLowNarrow",0.1,0.15,0.2,0.0251188643150958,0,0.564012836999609
76,493,"ThreeLinesControl",0,0,0.1,0.0158489319246111,1,0.69020307899882
76,494,"FarHighNarrow",0.2,0.15,0.1,0.0125892541179417,0,0.615284508998229
76,495,"FarHighWide",0.5,0.25,0.03,0.0251188643150958,1,0.574457304999669
76,496,"Constant",0.1,0.1,0.1,0.0125892541179417,0,0.451591343000473
76,497,"Constant",0.1,0.1,0.1,0.0158489319246111,1,0.561778636001691
76,498,"FarLowWide",0.03,0.25,0.5,0.0199526231496888,0,0.417228357000567
76,499,"FarLowNarrow",0.1,0.15,0.2,0.0316227766016838,1,0.452023232001011
76,500,"FarLowWide",0.03,0.25,0.5,0.0251188643150958,0,0.770267796000553
76,501,"FarHighNarrow",0.2,0.15,0.1,0.0158489319246111,0,99
76,502,"FarHighWide",0.5,0.25,0.03,0.0199526231496888,0,99
76,503,"ThreeLinesControl",0,0,0.1,0.0125892541179417,0,99
76,504,"FarHighWide",0.5,0.25,0.03,0.0251188643150958,0,99
76,505,"FarHighNarrow",0.2,0.15,0.1,0.0199526231496888,0,99
76,506,"FarHighWide",0.5,0.25,0.03,0.0316227766016838,0,99
76,507,"FarHighNarrow",0.2,0.15,0.1,0.0251188643150958,0,99
76,508,"ThreeLinesControl",0,0,0.1,0.0158489319246111,0,99
76,509,"Constant",0.1,0.1,0.1,0.0125892541179417,0,99
76,510,"Constant",0.1,0.1,0.1,0.0158489319246111,0,99
76,511,"FarHighWide",0.5,0.25,0.03,0.0398107170553497,0,99
76,512,"FarLowNarrow",0.1,0.15,0.2,0.0251188643150958,0,99
76,513,"FarHighNarrow",0.2,0.15,0.1,0.0316227766016838,0,99
76,514,"ThreeLinesControl",0,0,0.1,0.0199526231496888,0,99
76,515,"FarLowNarrow",0.1,0.15,0.2,0.0316227766016838,0,99
76,516,"ThreeLinesControl",0,0,0.1,0.0251188643150958,0,99
76,517,"ThreeLinesControl",0,0,0.1,0.0316227766016838,0,99
76,518,"ThreeLinesControl",0,0,0.1,0.0398107170553497,0,99
76,519,"Constant",0.1,0.1,0.1,0.0199526231496888,0,99
76,520,"FarHighWide",0.5,0.25,0.03,0.0501187233627272,0,99
76,521,"FarHighNarrow",0.2,0.15,0.1,0.0398107170553497,0,99
76,522,"FarHighWide",0.5,0.25,0.03,0.0630957344480193,0,99
76,523,"FarLowWide",0.03,0.25,0.5,0.0316227766016838,0,99
76,524,"FarLowNarrow",0.1,0.15,0.2,0.0398107170553497,0,99
76,525,"FarHighNarrow",0.2,0.15,0.1,0.0501187233627272,0,99
76,526,"FarLowNarrow",0.1,0.15,0.2,0.0501187233627272,0,99
76,527,"Constant",0.1,0.1,0.1,0.0251188643150958,0,99
76,528,"FarHighWide",0.5,0.25,0.03,0.0794328234724281,0,99
76,529,"FarLowNarrow",0.1,0.15,0.2,0.0630957344480193,0,99
76,530,"FarHighNarrow",0.2,0.15,0.1,0.0630957344480193,0,99
76,531,"ThreeLinesControl",0,0,0.1,0.0501187233627272,0,99
76,532,"FarLowWide",0.03,0.25,0.5,0.0398107170553497,0,99
76,533,"FarHighWide",0.5,0.25,0.03,0.1,0,99
76,534,"FarLowNarrow",0.1,0.15,0.2,0.0794328234724281,0,99
76,535,"FarHighWide",0.5,0.25,0.03,0.1,0,99
76,536,"Constant",0.1,0.1,0.1,0.0316227766016838,0,99
76,538,"FarHighNarrow",0.2,0.15,0.1,0.0794328234724281,0,99
76,539,"FarLowWide",0.03,0.25,0.5,0.0501187233627272,0,99
76,540,"FarLowWide",0.03,0.25,0.5,0.0630957344480193,0,99
76,541,"Constant",0.1,0.1,0.1,0.0398107170553497,0,99
76,542,"ThreeLinesControl",0,0,0.1,0.0630957344480193,0,99
76,543,"FarHighWide",0.5,0.25,0.03,0.1,0,99
76,545,"ThreeLinesControl",0,0,0.1,0.0794328234724281,0,99
76,546,"FarHighNarrow",0.2,0.15,0.1,0.1,0,99
76,547,"FarHighWide",0.5,0.25,0.03,0.1,0,99
76,548,"Constant",0.1,0.1,0.1,0.0501187233627272,0,99
76,550,"Constant",0.1,0.1,0.1,0.0630957344480193,0,99
76,551,"FarLowWide",0.03,0.25,0.5,0.0794328234724281,0,99
76,552,"ThreeLinesControl",0,0,0.1,0.1,0,99
76,553,"FarHighWide",0.5,0.25,0.03,0.1,0,99
76,555,"FarLowWide",0.03,0.25,0.5,0.1,0,99
76,556,"FarHighWide",0.5,0.25,0.03,0.1,0,99
76,557,"ThreeLinesControl",0,0,0.1,0.1,0,99
76,558,"FarHighNarrow",0.2,0.15,0.1,0.1,0,99
76,559,"FarLowWide",0.03,0.25,0.5,0.1,0,99
76,560,"ThreeLinesControl",0,0,0.1,0.1,0,99
76,561,"Constant",0.1,0.1,0.1,0.0794328234724281,0,99
76,562,"FarHighNarrow",0.2,0.15,0.1,0.1,0,99
76,564,"FarLowNarrow",0.1,0.15,0.2,0.1,0,99
76,565,"FarLowWide",0.03,0.25,0.5,0.1,0,99
76,566,"FarLowWide",0.03,0.25,0.5,0.1,0,99
76,567,"FarLowNarrow",0.1,0.15,0.2,0.1,0,99
76,568,"FarLowNarrow",0.1,0.15,0.2,0.1,0,99
76,569,"FarLowWide",0.03,0.25,0.5,0.1,0,99
76,570,"FarHighNarrow",0.2,0.15,0.1,0.1,0,99
76,571,"FarHighWide",0.5,0.25,0.03,0.1,0,99
76,572,"FarLowNarrow",0.1,0.15,0.2,0.1,0,99
76,573,"FarHighWide",0.5,0.25,0.03,0.1,0,99
76,574,"ThreeLinesControl",0,0,0.1,0.1,0,99
76,575,"FarLowNarrow",0.1,0.15,0.2,0.1,0,99
76,576,"ThreeLinesControl",0,0,0.1,0.1,0,99
76,577,"FarHighWide",0.5,0.25,0.03,0.1,0,99
76,578,"FarLowNarrow",0.1,0.15,0.2,0.1,0,99
76,579,"FarHighNarrow",0.2,0.15,0.1,0.1,0,99
76,580,"Constant",0.1,0.1,0.1,0.1,0,99
76,581,"ThreeLinesControl",0,0,0.1,0.1,0,99
76,582,"FarLowWide",0.03,0.25,0.5,0.1,0,99
76,583,"FarHighWide",0.5,0.25,0.03,0.1,0,99
76,585,"FarHighWide",0.5,0.25,0.03,0.1,0,99
76,586,"Constant",0.1,0.1,0.1,0.1,0,99
76,587,"FarLowWide",0.03,0.25,0.5,0.1,0,99
76,590,"ThreeLinesControl",0,0,0.1,0.1,0,99
76,591,"Constant",0.1,0.1,0.1,0.1,0,99
76,592,"FarLowWide",0.03,0.25,0.5,0.1,0,99
76,593,"Constant",0.1,0.1,0.1,0.1,0,99
76,595,"ThreeLinesControl",0,0,0.1,0.1,0,99
76,596,"FarHighNarrow",0.2,0.15,0.1,0.1,0,99
76,597,"FarHighWide",0.5,0.25,0.03,0.1,0,99
76,598,"FarHighNarrow",0.2,0.15,0.1,0.1,0,99
76,599,"FarLowWide",0.03,0.25,0.5,0.1,0,99
76,600,"FarLowWide",0.03,0.25,0.5,0.1,0,99
76,602,"FarHighWide",0.5,0.25,0.03,0.1,1,0.323409490001723
76,603,"FarLowWide",0.03,0.25,0.5,0.1,0,0.288716896000551
76,604,"FarHighWide",0.5,0.25,0.03,0.0794328234724282,1,0.286820383998929
76,605,"ThreeLinesControl",0,0,0.1,0.1,1,0.285404698001003
76,607,"FarHighNarrow",0.2,0.15,0.1,0.1,1,0.419533268999658
76,608,"FarLowNarrow",0.1,0.15,0.2,0.1,1,0.575168822000705
76,609,"Constant",0.1,0.1,0.1,0.1,1,0.877557664000051
76,610,"FarLowNarrow",0.1,0.15,0.2,0.0794328234724282,1,0.276170017001277
76,611,"FarLowNarrow",0.1,0.15,0.2,0.0630957344480193,0,99
76,612,"FarLowNarrow",0.1,0.15,0.2,0.0794328234724281,1,0.541044972000236
76,613,"FarLowNarrow",0.1,0.15,0.2,0.0630957344480193,1,0.371373607000351
76,614,"FarLowWide",0.03,0.25,0.5,0.1,1,0.206217779999861
76,615,"FarLowNarrow",0.1,0.15,0.2,0.0501187233627272,1,0.212400589000026
76,616,"ThreeLinesControl",0,0,0.1,0.0794328234724282,1,0.233595770001557
76,617,"FarLowNarrow",0.1,0.15,0.2,0.0398107170553497,1,0.1920494040005
76,618,"FarHighWide",0.5,0.25,0.03,0.0630957344480193,1,0.182005660999494
76,619,"Constant",0.1,0.1,0.1,0.0794328234724282,1,0.140190345000519
76,620,"Constant",0.1,0.1,0.1,0.0630957344480193,1,0.19310347100145
76,621,"FarLowWide",0.03,0.25,0.5,0.0794328234724282,1,0.199732565000886
76,622,"FarLowNarrow",0.1,0.15,0.2,0.0316227766016838,1,0.142735101999278
76,624,"FarHighNarrow",0.2,0.15,0.1,0.0794328234724282,1,0.331757473000835
76,626,"FarLowWide",0.03,0.25,0.5,0.0630957344480193,1,0.188699872998768
76,627,"FarHighWide",0.5,0.25,0.03,0.0501187233627272,1,0.350974766000945
76,628,"FarHighWide",0.5,0.25,0.03,0.0398107170553497,1,0.42971601499994
76,629,"ThreeLinesControl",0,0,0.1,0.0630957344480193,1,0.275449000000663
76,630,"Constant",0.1,0.1,0.1,0.0501187233627272,1,0.278884528999697
76,632,"FarLowWide",0.03,0.25,0.5,0.0501187233627272,1,0.26723077600036
76,633,"FarHighWide",0.5,0.25,0.03,0.0316227766016838,1,0.33635827299986
76,634,"ThreeLinesControl",0,0,0.1,0.0501187233627272,1,0.238128795999728
76,635,"FarLowWide",0.03,0.25,0.5,0.0398107170553497,1,0.276388450998638
76,636,"Constant",0.1,0.1,0.1,0.0398107170553497,1,0.306561787998362
76,637,"ThreeLinesControl",0,0,0.1,0.0398107170553497,1,0.265081544999703
76,638,"FarHighWide",0.5,0.25,0.03,0.0251188643150958,1,0.415133210000931
76,639,"FarHighWide",0.5,0.25,0.03,0.0199526231496888,1,0.397260608000579
76,640,"FarLowWide",0.03,0.25,0.5,0.0316227766016838,1,0.308729881000545
76,641,"Constant",0.1,0.1,0.1,0.0316227766016838,1,0.296328518999871
76,642,"FarHighWide",0.5,0.25,0.03,0.0158489319246111,1,0.406457290000617
76,643,"FarHighWide",0.5,0.25,0.03,0.0125892541179417,0,0.408648500999334
76,644,"Constant",0.1,0.1,0.1,0.0251188643150958,1,0.398671430999457
76,645,"FarLowNarrow",0.1,0.15,0.2,0.0251188643150958,1,0.300850595000156
76,646,"ThreeLinesControl",0,0,0.1,0.0316227766016838,1,0.320068458000605
76,647,"FarHighWide",0.5,0.25,0.03,0.0158489319246111,0,0.614255507000053
76,648,"Constant",0.1,0.1,0.1,0.0199526231496888,1,0.300281062000067
76,650,"FarLowNarrow",0.1,0.15,0.2,0.0199526231496888,0,0.816624318000322
76,651,"FarLowNarrow",0.1,0.15,0.2,0.0251188643150958,1,0.677848001998427
76,652,"FarLowWide",0.03,0.25,0.5,0.0251188643150958,0,99
76,653,"FarLowNarrow",0.1,0.15,0.2,0.0199526231496888,1,0.506286731000728
76,654,"FarHighWide",0.5,0.25,0.03,0.0199526231496888,1,0.624484465000933
76,655,"FarHighWide",0.5,0.25,0.03,0.0158489319246111,1,0.407792329000586
76,656,"ThreeLinesControl",0,0,0.1,0.0251188643150958,1,0.678855238000324
76,658,"FarHighWide",0.5,0.25,0.03,0.0125892541179417,1,0.39174869099952
76,659,"FarHighNarrow",0.2,0.15,0.1,0.0630957344480193,1,0.3101618769997
76,660,"FarLowWide",0.03,0.25,0.5,0.0316227766016838,1,0.337067292999564
76,661,"ThreeLinesControl",0,0,0.1,0.0199526231496888,0,0.679463804999614
76,662,"FarHighNarrow",0.2,0.15,0.1,0.0501187233627272,1,0.522248846998991
76,663,"FarLowWide",0.03,0.25,0.5,0.0251188643150958,0,0.704808207001406
76,664,"FarHighWide",0.5,0.25,0.03,0.01,1,0.38296377000006
76,665,"Constant",0.1,0.1,0.1,0.0158489319246111,1,0.509141696998995
76,666,"FarLowNarrow",0.1,0.15,0.2,0.0158489319246111,0,0.513759273000687
76,667,"FarLowWide",0.03,0.25,0.5,0.0316227766016838,1,0.368073982001079
76,668,"Constant",0.1,0.1,0.1,0.0125892541179417,1,0.478656945000694
76,669,"FarLowWide",0.03,0.25,0.5,0.0251188643150958,1,0.332655214000624
76,670,"ThreeLinesControl",0,0,0.1,0.0251188643150958,1,0.794788389999667
76,671,"ThreeLinesControl",0,0,0.1,0.0199526231496888,1,0.561307719999604
76,672,"FarLowWide",0.03,0.25,0.5,0.0199526231496888,0,0.415125216999513
76,673,"FarHighWide",0.5,0.25,0.03,0.00794328234724281,0,0.467163698000149
76,674,"FarHighWide",0.5,0.25,0.03,0.01,0,0.545401077999486
76,675,"FarHighNarrow",0.2,0.15,0.1,0.0398107170553497,1,0.302660454000943
76,676,"ThreeLinesControl",0,0,0.1,0.0158489319246111,1,0.513817189001202
76,677,"Constant",0.1,0.1,0.1,0.01,0,0.440251422998699
76,678,"Constant",0.1,0.1,0.1,0.0125892541179417,0,0.541907695998816
76,679,"FarHighNarrow",0.2,0.15,0.1,0.0316227766016838,1,0.451625757999864
76,680,"ThreeLinesControl",0,0,0.1,0.0125892541179417,0,0.382942338999783
76,681,"FarLowNarrow",0.1,0.15,0.2,0.0199526231496888,0,0.461510072998863
76,682,"ThreeLinesControl",0,0,0.1,0.0158489319246111,1,0.483283359999405
76,683,"FarHighWide",0.5,0.25,0.03,0.0125892541179417,1,0.616937845001303
76,684,"FarLowWide",0.03,0.25,0.5,0.0251188643150958,1,0.566835781999544
76,685,"FarHighNarrow",0.2,0.15,0.1,0.0251188643150958,0,0.627784592999888
76,686,"FarLowWide",0.03,0.25,0.5,0.0199526231496888,0,0.417964363999999
76,687,"ThreeLinesControl",0,0,0.1,0.0125892541179417,0,0.424506351000673
76,688,"FarHighWide",0.5,0.25,0.03,0.01,1,0.519950091998908
76,689,"Constant",0.1,0.1,0.1,0.0158489319246111,1,0.445743377000326
76,690,"FarHighNarrow",0.2,0.15,0.1,0.0316227766016838,1,0.441836382000474
76,691,"FarHighWide",0.5,0.25,0.03,0.00794328234724281,0,0.446927543000129
76,692,"FarLowNarrow",0.1,0.15,0.2,0.0251188643150958,1,0.579157770000165
76,693,"FarLowWide",0.03,0.25,0.5,0.0251188643150958,0,0.577044958999977
76,695,"FarLowWide",0.03,0.25,0.5,0.0316227766016838,1,0.410489698000674
76,696,"FarLowWide",0.03,0.25,0.5,0.0251188643150958,1,0.800690881998889
76,699,"ThreeLinesControl",0,0,0.1,0.0158489319246111,0,0.409824747999664
76,700,"FarHighWide",0.5,0.25,0.03,0.01,0,0.543842299999596
76,701,"FarLowWide",0.03,0.25,0.5,0.0199526231496888,0,0.494473677999849
76,702,"FarLowWide",0.03,0.25,0.5,0.0251188643150958,0,0.652802517999589
76,703,"ThreeLinesControl",0,0,0.1,0.0199526231496888,1,0.523327805000008
76,704,"FarHighWide",0.5,0.25,0.03,0.0125892541179417,1,0.537417994999487
76,705,"FarLowWide",0.03,0.25,0.5,0.0316227766016838,1,0.35897544099862
76,706,"Constant",0.1,0.1,0.1,0.0125892541179417,0,0.482273560999602
76,707,"FarLowNarrow",0.1,0.15,0.2,0.0199526231496888,0,0.424103982000815
76,708,"FarLowNarrow",0.1,0.15,0.2,0.0251188643150958,1,0.435262969000178
76,710,"FarLowNarrow",0.1,0.15,0.2,0.0199526231496888,1,0.351876840000841
76,711,"FarHighWide",0.5,0.25,0.03,0.01,0,0.427752984998733
76,712,"FarLowWide",0.03,0.25,0.5,0.0251188643150958,1,1.20185786899856
76,713,"FarLowWide",0.03,0.25,0.5,0.0199526231496888,0,0.792244570999173
76,714,"FarHighNarrow",0.2,0.15,0.1,0.0251188643150958,1,0.373287098998844
76,715,"FarHighNarrow",0.2,0.15,0.1,0.0199526231496888,1,0.883105916998829
76,717,"FarHighNarrow",0.2,0.15,0.1,0.0158489319246111,1,0.303690655999162
76,718,"FarLowWide",0.03,0.25,0.5,0.0251188643150958,0,0.526036172999738
76,720,"FarLowWide",0.03,0.25,0.5,0.0316227766016838,0,1.16588424600013
76,721,"ThreeLinesControl",0,0,0.1,0.0158489319246111,1,0.571349666999595
76,722,"FarHighNarrow",0.2,0.15,0.1,0.0125892541179417,0,0.417351205000159
76,723,"FarLowNarrow",0.1,0.15,0.2,0.0158489319246111,1,0.447325266999542
76,724,"FarHighNarrow",0.2,0.15,0.1,0.0158489319246111,1,0.48587373600094
76,725,"FarHighNarrow",0.2,0.15,0.1,0.0125892541179417,0,0.523833878000005
76,726,"FarLowWide",0.03,0.25,0.5,0.0398107170553497,1,0.409920035999676
76,727,"FarHighWide",0.5,0.25,0.03,0.0125892541179417,0,0.449329974999273
76,728,"FarHighWide",0.5,0.25,0.03,0.0158489319246111,1,0.415395955000349
76,729,"FarLowNarrow",0.1,0.15,0.2,0.0125892541179417,0,0.388299766000273
76,730,"FarLowNarrow",0.1,0.15,0.2,0.0158489319246111,0,0.425536087999717
76,731,"FarHighWide",0.5,0.25,0.03,0.0125892541179417,0,0.644671658001243
76,733,"Constant",0.1,0.1,0.1,0.0158489319246111,1,0.425083365000319
76,734,"FarLowWide",0.03,0.25,0.5,0.0316227766016838,1,0.323974439001177
76,735,"Constant",0.1,0.1,0.1,0.0125892541179417,0,0.522417009000492
76,736,"ThreeLinesControl",0,0,0.1,0.0125892541179417,0,0.504283982998459
76,737,"Constant",0.1,0.1,0.1,0.0158489319246111,1,0.381539894000525
76,738,"FarHighWide",0.5,0.25,0.03,0.0158489319246111,1,0.603876536000826
76,740,"FarLowNarrow",0.1,0.15,0.2,0.0199526231496888,0,0.438919262000127
76,741,"FarLowNarrow",0.1,0.15,0.2,0.0251188643150958,1,0.541400646001421
76,744,"ThreeLinesControl",0,0,0.1,0.0158489319246111,1,0.536896708999848
76,745,"FarLowWide",0.03,0.25,0.5,0.0251188643150958,1,0.460877000999972
76,746,"ThreeLinesControl",0,0,0.1,0.0125892541179417,0,0.434470107999005
76,747,"FarLowNarrow",0.1,0.15,0.2,0.0199526231496888,0,0.446055608999814
76,748,"FarHighNarrow",0.2,0.15,0.1,0.0158489319246111,1,0.468408253000234
76,749,"Constant",0.1,0.1,0.1,0.0125892541179417,0,0.506462725999882
76,750,"ThreeLinesControl",0,0,0.1,0.0158489319246111,0,0.52559049500087
76,751,"ThreeLinesControl",0,0,0.1,0.0199526231496888,1,0.475783820000288
76,752,"FarHighWide",0.5,0.25,0.03,0.0125892541179417,0,0.457854253998448
76,753,"FarHighWide",0.5,0.25,0.03,0.0158489319246111,1,0.470913609999116
76,754,"FarHighNarrow",0.2,0.15,0.1,0.0125892541179417,0,0.733333244999812
76,755,"FarLowWide",0.03,0.25,0.5,0.0199526231496888,0,0.523139393000747
76,756,"FarHighNarrow",0.2,0.15,0.1,0.0158489319246111,1,0.63245907000055
76,757,"FarHighNarrow",0.2,0.15,0.1,0.0125892541179417,0,0.582558520998646
76,758,"FarHighNarrow",0.2,0.15,0.1,0.0158489319246111,1,0.557892841001376
76,759,"FarLowWide",0.03,0.25,0.5,0.0251188643150958,1,0.652106764000564
76,760,"FarHighNarrow",0.2,0.15,0.1,0.0125892541179417,0,0.499527923999267
76,761,"FarLowWide",0.03,0.25,0.5,0.0199526231496888,1,0.503314065001177
76,762,"ThreeLinesControl",0,0,0.1,0.0158489319246111,1,0.525226854999346
76,763,"Constant",0.1,0.1,0.1,0.0158489319246111,0,0.562501816000804
76,764,"FarHighWide",0.5,0.25,0.03,0.0125892541179417,0,0.621567084999697
76,765,"FarLowWide",0.03,0.25,0.5,0.0158489319246111,0,0.883851869000864
